subject,trial,stim,picture,response,reactiontime,correct,spaced,stimvalue,feedback,reward,repetition,trialonset
290,1,5,101,2,1.343385132,0,1,2,2,0.03,1,2.030266437
290,2,5,101,1,1.187822756,1,1,2,2,0.41,2,9.557495983
290,3,2,111,1,0.946170854,0,1,0,0,-0.25,1,17.38243195
290,4,2,111,2,0.714071299,1,1,0,0,-0.03,2,22.371986
290,5,5,101,-1,NaN,NaN,1,2,2,-0.5,3,28.11154403
290,6,2,111,1,1.403694755,0,1,0,-1,-0.04,3,33.70105999
290,7,4,138,2,0.888183159,1,1,0,0,-0.01,1,39.2903556
290,8,4,138,2,0.881968966,1,1,0,0,-0.01,2,45.18055345
290,9,1,102,1,0.943880359,1,1,1,1,0.28,1,51.95541367
290,10,1,102,1,0.600955595,1,1,1,1,0.28,2,57.54424245
290,11,1,102,1,0.552957466,0,1,1,0,-0.07,3,62.83382874
290,12,4,138,1,1.23904647,0,1,0,-1,0,3,68.12310226
290,13,5,101,1,1.297839092,0,1,2,0,-0.03,4,74.14625708
290,14,1,102,1,0.72856082,1,1,1,1,0.28,4,79.73607409
290,15,2,111,2,0.915165443,1,1,0,0,0.01,4,84.7251678
290,16,4,138,2,1.188270574,1,1,0,0,0.01,4,91.79950936
290,17,1,102,1,0.744803186,1,1,1,1,0.26,5,98.57335772
290,18,4,138,2,0.804649841,1,1,0,-1,-0.25,5,104.1632738
290,19,5,101,1,1.60713742,1,1,2,2,0.44,5,111.5384212
290,20,2,111,2,1.251994929,1,1,0,-1,-0.28,5,117.1279479
290,21,2,111,1,1.035140555,0,1,0,0,-0.2,6,2.036412733
290,22,4,138,1,1.256788479,0,1,0,0,-0.26,6,9.112613463
290,23,5,101,1,1.488351532,0,1,2,0,0,6,15.0029236
290,24,1,102,1,0.559631236,0,1,1,0,-0.1,6,22.52809218
290,25,4,138,2,1.637133045,1,1,0,0,-0.05,7,29.30264333
290,26,5,101,2,1.086678082,0,1,2,2,0.03,7,35.47533002
290,27,1,102,2,1.400750828,0,1,1,1,-0.09,7,40.7651849
290,28,2,111,2,0.840642791,1,1,0,0,0.02,7,47.08863316
290,29,1,102,1,0.835309195,1,1,1,1,0.22,8,52.07747921
290,30,5,101,1,1.151632432,1,1,2,2,0.49,8,59.45309948
290,31,4,138,1,0.948963281,0,1,0,-1,-0.01,8,67.27731468
290,32,2,111,2,1.080869266,1,1,0,0,-0.05,8,74.87023345
290,33,1,102,1,1.207287523,0,1,1,0,-0.04,9,81.04364204
290,34,2,111,2,1.365982795,1,1,0,-1,-0.23,9,85.88222678
290,35,4,138,2,1.25073434,1,1,0,0,0.01,9,92.80684924
290,36,5,101,1,1.346486617,0,1,2,0,-0.01,9,100.1821531
290,37,5,101,2,0.92266487,0,1,2,2,0.04,10,105.1704843
290,38,4,138,1,1.638557689,0,1,0,0,-0.29,10,112.3954029
290,39,2,111,2,1.690197086,1,1,0,0,-0.02,10,118.5694644
290,40,1,102,1,0.781103033,1,1,1,1,0.3,10,125.4936421
290,41,3,132,1,1.345507971,1,1,1,1,0.27,1,2.037489466
290,42,3,132,1,0.854360439,1,1,1,1,0.29,2,9.865196976
290,43,3,132,1,0.553476989,1,1,1,1,0.3,3,16.03834488
290,44,7,134,1,1.437410077,1,1,2,2,0.5,1,21.17803302
290,45,6,133,2,0.851379318,1,1,0,0,0,1,27.50215134
290,46,6,133,2,0.712509783,1,1,0,0,0.02,2,32.79075396
290,47,7,134,2,1.134443266,0,1,2,2,0.01,2,38.96531268
290,48,6,133,1,0.919494806,0,1,0,0,-0.28,3,45.13789664
290,49,7,134,1,1.505409281,1,1,2,2,0.46,3,52.81389918
290,50,3,132,1,0.73826689,0,1,1,0,-0.06,4,58.83624488
290,51,7,134,1,1.168906214,0,1,2,0,-0.08,4,64.27671211
290,52,6,133,2,1.039355944,1,1,0,-1,-0.23,4,70.16607827
290,53,3,132,1,0.520443533,1,1,1,1,0.29,5,75.90559
290,54,6,133,1,1.431827478,0,1,0,0,-0.29,5,82.98142302
290,55,7,134,1,0.947313907,1,1,2,2,0.4,5,89.75894888
290,56,3,132,1,0.531287591,0,1,1,0,-0.04,6,95.92861985
290,57,6,133,1,1.678508345,0,1,0,0,-0.29,6,102.703016
290,58,7,134,1,0.975409303,0,1,2,0,-0.07,6,109.1775551
290,59,3,132,1,0.622205637,1,1,1,1,0.25,7,114.7660618
290,60,7,134,1,1.066284744,1,1,2,2,0.42,7,121.6910074
290,61,6,133,2,1.133345477,1,1,0,-1,-0.22,7,2.029914861
290,62,3,132,1,0.700638817,0,1,1,0,-0.08,8,9.707420169
290,63,7,134,1,1.089942843,1,1,2,2,0.42,8,15.14679719
290,64,6,133,2,1.65773467,1,1,0,0,0,8,21.31931856
290,65,3,132,1,0.746517753,1,1,1,1,0.2,9,27.79438361
290,66,6,133,2,0.874591811,1,1,0,-1,-0.3,9,34.11715932
290,67,7,134,1,1.057542621,0,1,2,0,-0.04,9,41.49333899
290,68,3,132,1,0.781414763,1,1,1,1,0.28,10,49.16825829
290,69,6,133,2,0.910048482,1,1,0,0,0.01,10,56.693361
290,70,7,134,1,1.024816367,1,1,2,2,0.5,10,64.21802424
290,71,8,135,1,1.365098004,0,1,0,0,-0.2,NaN,69.2075779
290,72,8,135,2,0.532925398,1,1,0,0,-0.04,NaN,76.13155374
290,73,8,135,2,0.571859739,1,1,0,0,0.01,NaN,82.02074538
290,74,8,135,2,0.455793706,1,1,0,-1,-0.28,NaN,87.31012597
290,75,8,135,2,0.600888561,1,1,0,0,0.04,NaN,93.05027705
290,76,8,135,2,0.601772595,1,1,0,0,-0.01,NaN,100.5765295
290,77,8,135,1,0.956720646,0,1,0,0,-0.21,NaN,107.9514331
290,78,8,135,2,1.173451588,1,1,0,-1,-0.28,NaN,114.4249981
290,79,8,135,2,0.841023172,1,1,0,0,0,NaN,121.3490276
290,80,8,135,2,0.495436153,1,1,0,-1,-0.27,NaN,128.1232972
300,1,5,119,1,0.631101914,1,1,2,2,0.48,1,2.044433294
300,2,5,119,1,0.799616012,1,1,2,2,0.48,2,9.570562734
300,3,2,136,2,1.583945025,1,1,0,0,-0.05,1,17.39614796
300,4,2,136,2,0.867116031,1,1,0,0,0.04,2,22.38544293
300,5,2,136,2,0.820296902,1,1,0,-1,-0.21,3,28.12594038
300,6,5,119,1,0.73315943,1,1,2,2,0.42,3,33.71481603
300,7,5,119,1,0.554808052,1,1,2,0,-0.1,4,39.30417973
300,8,4,127,2,1.388372375,1,1,0,0,0.03,1,44.89441354
300,9,4,127,2,0.629823726,1,1,0,0,0.03,2,50.78347654
300,10,1,118,1,1.442071608,1,1,1,1,0.25,1,57.55792707
300,11,1,118,1,0.562491151,1,1,1,1,0.21,2,63.14813794
300,12,1,118,1,0.529589072,1,1,1,0,-0.09,3,68.4364102
300,13,4,127,2,0.934740328,1,1,0,-1,-0.22,3,73.72638809
300,14,4,127,2,1.637187796,1,1,0,0,-0.04,4,79.7503221
300,15,1,118,1,0.713319151,1,1,1,1,0.26,4,86.52423894
300,16,2,136,2,0.908267619,1,1,0,0,0.04,4,91.51337194
300,17,1,118,1,0.691916308,1,1,1,1,0.28,5,98.58802551
300,18,4,127,2,0.747745708,1,1,0,-1,-0.27,5,104.1772833
300,19,5,119,1,0.719493346,1,1,2,2,0.49,5,111.5528966
300,20,2,136,2,0.801117961,1,1,0,-1,-0.29,5,117.1422192
300,21,2,136,2,1.675474838,1,1,0,0,0.04,6,2.039462447
300,22,3,121,-1,NaN,NaN,1,1,1,-0.5,1,9.116173101
300,23,4,127,2,0.709034002,1,1,0,0,-0.03,6,16.19124566
300,24,5,119,1,0.804673304,1,1,2,0,-0.03,6,22.08140454
300,25,1,118,1,1.873651832,1,1,1,0,-0.04,6,29.60618477
300,26,4,127,1,1.207153688,0,1,0,0,-0.25,7,36.38087115
300,27,5,119,2,0.910959646,0,1,2,2,0.02,7,42.55472588
300,28,1,118,2,1.380827671,0,1,1,1,-0.03,7,47.84367819
300,29,2,136,1,0.995161218,0,1,0,0,-0.24,7,54.16662855
300,30,1,118,1,0.707471118,1,1,1,1,0.25,8,59.15527329
300,31,5,119,1,0.637805445,1,1,2,2,0.46,8,66.53141729
300,32,4,127,2,0.813616214,1,1,0,-1,-0.27,8,74.35555408
300,33,2,136,2,0.85980081,1,1,0,0,-0.03,8,81.94895808
300,34,1,118,1,0.803220488,1,1,1,0,-0.09,9,88.1218436
300,35,2,136,2,1.66139813,1,1,0,-1,-0.21,9,92.96003058
300,36,4,127,2,1.676722288,1,1,0,0,0,9,99.88480426
300,37,5,119,1,0.724529125,1,1,2,0,-0.09,9,107.2606191
300,38,5,119,1,0.576954135,1,1,2,2,0.44,10,112.2497352
300,39,4,127,2,0.911548861,1,1,0,0,-0.01,10,119.4746447
300,40,2,136,-1,NaN,NaN,1,0,0,-0.5,10,125.6482455
300,41,1,118,1,0.399358882,1,1,1,1,0.24,10,2.039209446
300,42,3,121,1,0.631308028,1,1,1,1,0.25,2,8.065416107
300,43,3,121,1,0.624391762,1,1,1,1,0.27,3,15.89026207
300,44,3,121,1,0.582407087,1,1,1,1,0.25,4,22.06372442
300,45,7,101,1,1.314804895,1,1,2,2,0.49,1,27.20309106
300,46,7,101,1,0.583114058,1,1,2,2,0.49,2,33.52701241
300,47,7,101,1,0.522646358,1,1,2,2,0.5,3,39.7007211
300,48,6,128,1,1.240229918,0,1,0,0,-0.27,1,45.72424682
300,49,6,128,2,0.596346864,1,1,0,0,0.03,2,51.01303282
300,50,6,128,2,0.7999404,1,1,0,0,-0.02,3,57.18676517
300,51,8,138,2,1.179059344,1,1,0,0,0.04,1,64.86152803
300,52,8,138,2,0.647038287,1,1,0,0,0,2,71.78633702
300,53,8,138,2,0.649961639,1,1,0,0,-0.01,3,77.67647002
300,54,6,128,2,1.011585685,1,1,0,-1,-0.23,4,82.96591551
300,55,3,121,1,1.021192757,1,1,1,0,-0.07,5,88.70610667
300,56,7,101,1,0.634349812,1,1,2,0,-0.05,4,94.14418204
300,57,6,128,2,0.784828673,1,1,0,0,0.01,5,100.0356374
300,58,8,138,2,0.868425308,1,1,0,-1,-0.21,4,106.8100551
300,59,8,138,2,0.619010287,1,1,0,0,-0.03,5,112.5490075
300,60,7,101,1,0.592088203,1,1,2,2,0.41,5,120.0732481
300,61,3,121,1,0.897743288,1,1,1,0,-0.03,6,2.027275723
300,62,6,128,2,0.870911279,1,1,0,0,0,6,8.803226102
300,63,7,101,1,0.668511559,1,1,2,0,-0.09,6,15.27822211
300,64,8,138,2,1.013385239,1,1,0,0,0.05,6,20.86757236
300,65,3,121,1,1.068371122,1,1,1,1,0.25,7,28.24273354
300,66,7,101,1,0.632190513,1,1,2,2,0.48,7,35.16763228
300,67,8,138,2,0.772548335,1,1,0,0,-0.01,7,41.64187688
300,68,6,128,2,0.81606164,1,1,0,-1,-0.25,7,48.11487055
300,69,3,121,1,1.182860129,1,1,1,0,-0.08,8,55.79009616
300,70,7,101,1,0.561437115,1,1,2,2,0.42,8,61.22957084
300,71,6,128,2,1.023348528,1,1,0,0,0.01,8,67.40261401
300,72,3,121,2,1.067121091,0,1,1,1,-0.07,9,73.87717927
300,73,6,128,1,1.133271184,0,1,0,-1,0,9,80.20101549
300,74,8,138,1,1.203841308,0,1,0,-1,0.04,8,87.57643321
300,75,7,101,1,0.520908247,1,1,2,0,-0.06,9,94.50064564
300,76,3,121,1,1.187172713,1,1,1,1,0.23,10,102.1763409
300,77,8,138,1,0.981311762,0,1,0,0,-0.29,9,109.701275
300,78,6,128,1,0.889896107,0,1,0,0,-0.23,10,116.4740156
300,79,7,101,1,0.600277929,1,1,2,2,0.46,10,124.0002881
300,80,8,138,2,0.689193376,1,1,0,-1,-0.2,10,128.9896209
301,1,5,125,1,0.885942871,1,1,2,2,0.46,1,2.038430181
301,2,5,125,1,0.817833157,1,1,2,2,0.43,2,9.567214597
301,3,2,103,1,0.892084624,0,1,0,0,-0.27,1,17.39175153
301,4,2,103,2,0.472069365,1,1,0,0,0.03,2,22.38115624
301,5,2,103,2,0.99996676,1,1,0,-1,-0.2,3,28.1206288
301,6,5,125,1,0.762010669,1,1,2,2,0.41,3,33.71035656
301,7,5,125,1,0.786966871,1,1,2,0,-0.03,4,39.30033885
301,8,4,101,1,0.899796776,0,1,0,0,-0.23,1,44.88889983
301,9,4,101,2,0.34656704,1,1,0,0,0.01,2,50.77931108
301,10,1,121,2,1.292250647,0,1,1,1,-0.06,1,57.55365256
301,11,1,121,2,0.75999959,0,1,1,1,0,2,63.14390163
301,12,1,121,1,0.559933457,1,1,1,0,-0.02,3,68.43234883
301,13,4,101,2,1.244598794,1,1,0,-1,-0.24,3,73.72215852
301,14,4,101,1,0.664105838,0,1,0,0,-0.22,4,79.7452836
301,15,1,121,2,1.690980882,0,1,1,1,-0.01,4,86.51934615
301,16,2,103,2,1.432374512,1,1,0,0,-0.02,4,91.50731225
301,17,1,121,1,1.268778888,1,1,1,1,0.25,5,98.5827514
301,18,4,101,1,1.369304262,0,1,0,-1,0.03,5,104.1727207
301,19,5,125,1,0.80709999,1,1,2,2,0.44,5,111.5477079
301,20,2,103,1,1.616967718,0,1,0,-1,-0.04,5,117.1366851
301,21,2,103,1,0.856674413,0,1,0,0,-0.22,6,2.036288494
301,22,3,133,2,1.224222764,0,1,1,1,-0.01,1,9.115151288
301,23,4,101,1,1.126867975,0,1,0,0,-0.26,6,16.18879618
301,24,5,125,1,0.939839141,1,1,2,0,-0.04,6,22.08003533
301,25,1,121,1,1.019984776,1,1,1,0,-0.01,6,29.60384754
301,26,4,101,2,1.000391119,1,1,0,0,0,7,36.37874813
301,27,5,125,2,1.295185065,0,1,2,2,-0.03,7,42.55321263
301,28,1,121,2,1.339293819,0,1,1,1,-0.03,7,47.84179594
301,29,2,103,2,1.449319859,1,1,0,0,0.01,7,54.16460854
301,30,1,121,2,1.454404258,0,1,1,1,-0.09,8,59.15439068
301,31,5,125,2,1.396656091,0,1,2,2,-0.02,8,66.52873081
301,32,4,101,1,1.288578494,0,1,0,-1,0.02,8,74.35445386
301,33,2,103,1,1.580479119,0,1,0,0,-0.25,8,81.94699782
301,34,1,121,1,1.260863535,1,1,1,0,-0.04,9,88.12062062
301,35,2,103,1,0.982912702,0,1,0,-1,0.05,9,92.96000154
301,36,4,101,1,1.45545225,0,1,0,0,-0.21,9,99.88564365
301,37,5,125,1,1.291511101,1,1,2,0,-0.09,9,107.2571396
301,38,5,125,2,1.06184962,0,1,2,2,0.05,10,112.2466421
301,39,4,101,2,1.473677162,1,1,0,0,-0.02,10,119.4722993
301,40,2,103,1,1.894601264,0,1,0,0,-0.23,10,125.6456694
301,41,1,121,2,1.47908284,0,1,1,1,-0.07,10,2.040209497
301,42,3,133,1,1.607725061,1,1,1,1,0.21,2,8.067854202
301,43,3,133,1,0.746777076,1,1,1,1,0.2,3,15.89333742
301,44,3,133,1,0.717974206,1,1,1,1,0.22,4,22.06703946
301,45,7,122,1,1.508650295,1,1,2,2,0.41,1,27.2053357
301,46,7,122,1,0.732242827,1,1,2,2,0.41,2,33.52949763
301,47,7,122,1,0.554631499,1,1,2,2,0.44,3,39.70323179
301,48,6,116,1,1.584967992,0,1,0,0,-0.27,1,45.72613419
301,49,6,116,2,0.460130052,1,1,0,0,0.02,2,51.01539565
301,50,6,116,2,0.498675003,1,1,0,0,-0.01,3,57.18914025
301,51,8,129,1,1.098362292,0,1,0,0,-0.2,1,64.86517256
301,52,8,129,2,0.3412016,1,1,0,0,-0.02,2,71.78901912
301,53,8,129,2,0.53837259,1,1,0,0,0,3,77.67898496
301,54,6,116,1,1.192350965,0,1,0,-1,0.04,4,82.96772839
301,55,3,133,1,0.809714619,1,1,1,0,-0.09,5,88.70817884
301,56,7,122,1,0.829211499,1,1,2,0,-0.09,4,94.14748253
301,57,6,116,2,1.243098934,1,1,0,0,-0.05,5,100.0376204
301,58,8,129,2,1.457241899,1,1,0,-1,-0.25,4,106.8117209
301,59,8,129,1,0.758459069,0,1,0,0,-0.24,5,112.5512452
301,60,7,122,1,1.158874082,1,1,2,2,0.46,5,120.0762787
301,61,3,133,1,0.526241903,1,1,1,0,-0.1,6,2.037796687
301,62,6,116,2,1.754911738,1,1,0,0,0,6,8.815679037
301,63,7,122,1,1.214786869,1,1,2,0,-0.05,6,15.2893195
301,64,8,129,2,1.497543525,1,1,0,0,-0.03,6,20.87889249
301,65,3,133,1,0.850637164,1,1,1,1,0.27,7,28.25314881
301,66,7,122,2,1.221980789,0,1,2,2,0.01,7,35.17822404
301,67,8,129,2,0.991979073,1,1,0,0,-0.01,7,41.65540704
301,68,6,116,2,1.197545785,1,1,0,-1,-0.25,7,48.12647276
301,69,3,133,1,0.71072221,1,1,1,0,-0.05,8,55.80063758
301,70,7,122,1,1.000912759,1,1,2,2,0.48,8,61.24064628
301,71,6,116,2,1.26967442,1,1,0,0,0.01,8,67.41482102
301,72,3,133,1,0.719059717,1,1,1,1,0.28,9,73.88789136
301,73,6,116,1,1.256760803,0,1,0,-1,0.04,9,80.21215727
301,74,8,129,2,1.213302803,1,1,0,-1,-0.26,8,87.58609387
301,75,7,122,1,1.030840015,1,1,2,0,-0.01,9,94.51110688
301,76,3,133,1,0.700647351,1,1,1,1,0.3,10,102.1858299
301,77,8,129,1,1.852824485,0,1,0,0,-0.24,9,109.7110981
301,78,6,116,1,0.556272134,0,1,0,0,-0.22,10,116.4849094
301,79,7,122,2,1.332861343,0,1,2,2,0.03,10,124.0122083
301,80,8,129,1,1.338442366,0,1,0,-1,-0.03,10,129.0002864
119,1,5,106,1,0.906834351,1,1,2,2,0.41,1,2.087271669
119,2,5,106,1,0.864457005,1,1,2,2,0.49,2,9.701232951
119,3,2,126,1,0.937884256,0,1,0,0,-0.22,1,17.63893973
119,4,2,126,2,0.818027261,1,1,0,0,-0.02,2,22.70886547
119,5,2,126,2,0.947128083,1,1,0,-1,-0.25,3,28.54612653
119,6,5,106,1,1.281528414,1,1,2,2,0.41,3,34.21632086
119,7,5,106,1,1.09500142,1,1,2,0,-0.01,4,39.88635986
119,8,4,122,1,1.950493762,0,1,0,0,-0.28,1,45.55724098
119,9,4,122,2,1.292591168,1,1,0,0,-0.02,2,51.52783971
119,10,1,135,1,1.394990353,1,1,1,1,0.25,1,58.39652383
119,11,1,135,1,1.209712652,1,1,1,1,0.22,2,64.10248007
119,12,1,135,1,1.119725178,1,1,1,0,-0.01,3,69.50597706
119,13,4,122,-1,NaN,NaN,1,0,-1,-0.5,3,74.90956075
119,14,4,122,2,1.083749844,1,1,0,0,0.02,4,81.07971586
119,15,1,135,1,0.972121854,1,1,1,1,0.23,4,87.98480796
119,16,2,126,1,1.16426954,0,1,0,0,-0.23,4,93.08836667
119,17,1,135,1,0.816583037,1,1,1,1,0.24,5,100.2601048
119,18,4,122,2,1.493214715,1,1,0,-1,-0.21,5,105.930319
119,19,5,106,1,1.067212341,1,1,2,2,0.47,5,113.4347368
119,20,2,126,1,1.193940208,0,1,0,-1,-0.04,5,119.1370112
119,21,2,126,1,1.401418973,0,1,0,0,-0.23,6,2.088666498
119,22,3,105,1,1.201735203,1,1,1,1,0.29,1,9.232142789
119,23,4,122,1,1.436107612,0,1,0,0,-0.26,6,16.43951068
119,24,5,106,1,1.269036117,1,1,2,0,-0.01,6,22.4423444
119,25,1,135,1,1.672197972,1,1,1,0,0,6,30.11399041
119,26,4,122,1,1.514384206,0,1,0,0,-0.24,7,37.02158958
119,27,5,106,1,0.885954247,1,1,2,2,0.47,7,43.29013935
119,28,1,135,1,1.103043629,1,1,1,1,0.24,7,48.69430045
119,29,2,126,2,1.017865881,1,1,0,0,0.03,7,55.16364404
119,30,1,135,1,1.02185162,1,1,1,1,0.27,8,60.26709023
119,31,5,106,1,0.820530519,1,1,2,2,0.44,8,67.77332844
119,32,4,122,1,1.366333428,0,1,0,-1,0,8,75.76461653
119,33,2,126,2,1.791888433,1,1,0,0,-0.01,8,83.44908064
119,34,1,135,1,1.842280018,1,1,1,0,-0.01,9,89.7541609
119,35,2,126,2,1.7004514,1,1,0,-1,-0.27,9,94.75825441
119,36,4,122,1,1.904603378,0,1,0,0,-0.3,9,101.7955648
119,37,5,106,1,0.789116871,1,1,2,0,-0.03,9,109.300309
119,38,5,106,1,0.96545134,1,1,2,2,0.49,10,114.4033914
119,39,4,122,1,1.110783813,0,1,0,0,-0.27,10,121.7728802
119,40,2,126,2,0.914785827,1,1,0,0,-0.05,10,128.0792144
119,41,1,135,1,1.174072894,1,1,1,1,0.25,10,2.06836564
119,42,3,105,1,1.234630677,1,1,1,1,0.3,2,8.181240066
119,43,3,105,1,0.95263331,1,1,1,1,0.25,3,16.15277123
119,44,3,105,1,0.676597697,1,1,1,1,0.21,4,22.45749111
119,45,7,116,1,1.501664048,1,1,2,2,0.47,1,27.72768131
119,46,7,116,1,0.553233518,1,1,2,2,0.43,2,34.19867562
119,47,7,116,1,0.916101285,1,1,2,2,0.46,3,40.50215875
119,48,6,125,1,1.554964943,0,1,0,0,-0.24,1,46.67250506
119,49,6,125,2,0.515005031,1,1,0,0,0.01,2,52.07666932
119,50,6,125,2,0.947120847,1,1,0,0,-0.05,3,58.38091512
119,51,8,111,1,1.109255817,0,1,0,0,-0.24,1,66.18494529
119,52,8,111,2,0.71322344,1,1,0,0,0.04,2,73.25735694
119,53,8,111,2,0.781376268,1,1,0,0,0.03,3,79.26179531
119,54,6,125,2,1.218630835,1,1,0,-1,-0.25,4,84.66486594
119,55,3,105,1,1.033157388,1,1,1,0,-0.07,5,90.53464894
119,56,7,116,1,1.657582147,1,1,2,0,-0.04,4,96.10477785
119,57,6,125,2,1.072735102,1,1,0,0,-0.01,5,102.1096764
119,58,8,111,2,1.14623341,1,1,0,-1,-0.28,4,108.9812201
119,59,8,111,2,1.088949959,1,1,0,0,0.03,5,114.851205
119,60,7,116,1,1.108225251,1,1,2,2,0.47,5,122.5230255
119,61,3,105,1,0.664677488,1,1,1,0,-0.06,6,2.077541201
119,62,6,125,2,0.971357658,1,1,0,0,-0.01,6,8.92382596
119,63,7,116,1,0.951495017,1,1,2,0,-0.09,6,15.52739365
119,64,8,111,2,1.001994525,1,1,0,0,0,6,21.23205685
119,65,3,105,1,0.812080631,1,1,1,1,0.25,7,28.73670598
119,66,7,116,1,0.714407737,1,1,2,2,0.44,7,35.80801614
119,67,8,111,2,0.842924423,1,1,0,0,-0.01,7,42.41222003
119,68,6,125,2,0.915538326,1,1,0,-1,-0.21,7,49.016624
119,69,3,105,1,1.058753462,1,1,1,0,-0.04,8,56.82259105
119,70,7,116,1,0.97741268,1,1,2,2,0.41,8,62.39093529
119,71,6,125,2,1.017821508,1,1,0,0,-0.04,8,68.6615995
119,72,3,105,1,0.89094244,1,1,1,1,0.24,9,75.26563814
119,73,6,125,2,1.025830823,1,1,0,-1,-0.3,9,81.73807961
119,74,8,111,2,1.00727772,1,1,0,-1,-0.22,8,89.24246085
119,75,7,116,1,0.993617421,1,1,2,0,-0.09,9,96.31391888
119,76,3,105,1,0.799414921,1,1,1,1,0.26,10,104.1189687
119,77,8,111,2,0.938135411,1,1,0,0,0.01,9,111.7576021
119,78,6,125,2,0.761160997,1,1,0,0,0.04,10,118.662252
119,79,7,116,1,0.954149087,1,1,2,2,0.44,10,126.3338265
119,80,8,111,2,1.074228957,1,1,0,-1,-0.28,10,131.4348179
309,1,5,102,1,0.546276038,1,1,2,2,0.41,1,2.040561205
309,2,5,102,1,0.535490327,1,1,2,2,0.46,2,9.567794078
309,3,2,105,1,0.960831137,0,1,0,0,-0.29,1,17.391875
309,4,2,105,2,0.470785377,1,1,0,0,0.04,2,22.38177787
309,5,2,105,2,0.601729258,1,1,0,-1,-0.22,3,28.12135064
309,6,5,102,1,0.917957403,1,1,2,2,0.42,3,33.71023447
309,7,5,102,1,0.806881025,1,1,2,0,-0.05,4,39.30102399
309,8,4,122,1,0.987235602,0,1,0,0,-0.21,1,44.89048608
309,9,4,122,2,1.759318876,1,1,0,0,0.01,2,50.77996438
309,10,1,104,1,0.928888417,1,1,1,1,0.24,1,57.5544514
309,11,1,104,1,1.11946969,1,1,1,1,0.24,2,63.14514864
309,12,1,104,1,0.690801309,1,1,1,0,-0.02,3,68.43277371
309,13,4,122,1,1.386717325,0,1,0,0,-0.26,3,73.72180426
309,14,4,122,2,0.743393708,1,1,0,0,0,4,79.74665317
309,15,1,104,1,1.239182925,1,1,1,1,0.21,4,86.51961161
309,16,2,105,2,0.862445739,1,1,0,0,0,4,91.50964281
309,17,1,104,2,1.500840213,0,1,1,1,0,5,98.58422088
309,18,4,122,2,0.887010074,1,1,0,-1,-0.28,5,104.1738986
309,19,5,102,1,0.685384345,1,1,2,2,0.46,5,111.5489289
309,20,2,105,2,0.769065965,1,1,0,-1,-0.24,5,117.1381698
309,21,2,105,2,0.767048521,1,1,0,0,-0.04,6,2.0441549
309,22,3,112,1,0.892613401,1,1,1,1,0.22,1,9.119772702
309,23,4,122,2,1.152635245,1,1,0,0,-0.04,6,16.19512385
309,24,5,102,1,0.645166086,1,1,2,2,0.46,6,22.08408172
309,25,1,104,2,1.397384822,0,1,1,0,0.21,6,29.60976634
309,26,4,122,2,0.699872176,1,1,0,0,-0.03,7,36.3837434
309,27,5,102,1,0.725241179,1,1,2,2,0.45,7,42.55669557
309,28,1,104,2,1.197345724,0,1,1,1,-0.09,7,47.84681087
309,29,2,105,2,1.094713871,1,1,0,0,-0.03,7,54.1698714
309,30,1,104,2,1.291295923,0,1,1,1,-0.09,8,59.15905829
309,31,5,102,1,0.634943255,1,1,2,2,0.44,8,66.53412723
309,32,4,122,1,0.954037318,0,1,0,-1,0,8,74.35983053
309,33,2,105,2,0.899426757,1,1,0,0,-0.04,8,81.95197116
309,34,1,104,2,1.420499291,0,1,1,1,-0.06,9,88.12543759
309,35,2,105,2,0.820726333,1,1,0,0,-0.04,9,92.96453242
309,36,4,122,1,0.738938611,0,1,0,0,-0.29,9,99.8885914
309,37,5,102,1,0.739348247,1,1,2,0,-0.02,9,107.2641901
309,38,5,102,1,0.557232198,1,1,2,2,0.45,10,112.2526918
309,39,4,122,1,1.201210394,0,1,0,0,-0.28,10,119.4776696
309,40,2,105,2,1.084531916,1,1,0,0,0.02,10,125.6507637
309,41,1,104,2,1.19461094,0,1,1,1,0,10,2.038193332
309,42,3,112,1,0.847621077,1,1,1,1,0.29,2,8.063834471
309,43,3,112,1,0.504970394,1,1,1,1,0.25,3,15.88887155
309,44,3,112,1,0.458143158,1,1,1,1,0.21,4,22.06293473
309,45,7,101,1,0.835677927,1,1,2,2,0.48,1,27.20115281
309,46,7,101,1,0.554515063,1,1,2,2,0.49,2,33.52451889
309,47,7,101,1,0.511934161,1,1,2,2,0.43,3,39.69858036
309,48,6,131,1,0.923452306,0,1,0,0,-0.22,1,45.72186234
309,49,6,131,2,0.672839835,1,1,0,0,0.05,2,51.01196832
309,50,6,131,2,0.562647876,1,1,0,0,0.01,3,57.18529161
309,51,8,121,1,0.888887748,0,1,0,0,-0.25,1,64.86125224
309,52,8,121,2,0.848838979,1,1,0,0,0.01,2,71.78496849
309,53,8,121,2,0.72236894,1,1,0,0,0,3,77.67538334
309,54,6,131,2,1.583007895,1,1,0,0,-0.04,4,82.96473437
309,55,3,112,1,1.584456987,1,1,1,1,0.26,5,88.7041654
309,56,7,101,1,0.894150896,1,1,2,0,0,4,94.14370686
309,57,6,131,1,0.560364023,0,1,0,0,-0.24,5,100.0335827
309,58,8,121,2,1.135463355,1,1,0,-1,-0.27,4,106.808169
309,59,8,121,1,0.503115735,0,1,0,0,-0.21,5,112.547818
309,60,7,101,1,0.658299157,1,1,2,2,0.48,5,120.0727166
309,61,3,112,1,0.539915464,1,1,1,0,-0.09,6,2.03319825
309,62,6,131,1,1.135808704,0,1,0,0,-0.23,6,8.809639211
309,63,7,101,1,0.524105139,1,1,2,2,0.44,6,15.28239276
309,64,8,121,1,0.525122174,0,1,0,0,-0.29,6,20.8742466
309,65,3,112,1,0.664793886,1,1,1,1,0.27,7,28.24711581
309,66,7,101,1,0.546486628,1,1,2,2,0.41,7,35.17288408
309,67,8,121,2,0.890688198,1,1,0,0,0.02,7,41.64586448
309,68,6,131,2,0.538561524,1,1,0,-1,-0.26,7,48.11960597
309,69,3,112,1,0.580244191,1,1,1,0,-0.02,8,55.79592825
309,70,7,101,1,0.711121074,1,1,2,2,0.44,8,61.23534061
309,71,6,131,2,1.274730254,1,1,0,0,0.04,8,67.40890978
309,72,3,112,1,0.544419821,1,1,1,1,0.28,9,73.88205178
309,73,6,131,2,1.009672921,1,1,0,-1,-0.25,9,80.20671276
309,74,8,121,2,0.907307929,1,1,0,0,-0.03,8,87.58129981
309,75,7,101,1,1.026535951,1,1,2,0,-0.07,9,94.50616971
309,76,3,112,1,0.793365034,1,1,1,1,0.29,10,102.1808449
309,77,8,121,2,0.886290061,1,1,0,0,0.03,9,109.7064817
309,78,6,131,2,1.349115281,1,1,0,0,0.02,10,116.4805206
309,79,7,101,1,0.672434223,1,1,2,2,0.48,10,124.0051084
309,80,8,121,2,1.603737924,1,1,0,-1,-0.21,10,128.9941479
310,1,5,113,1,0.585633678,1,1,2,2,0.49,1,2.034890691
310,2,5,113,1,0.621248604,1,1,2,2,0.41,2,9.562182132
310,3,2,129,1,0.875578637,0,1,0,0,-0.28,1,17.38798162
310,4,2,129,2,0.472951602,1,1,0,0,0.05,2,22.37701713
310,5,2,129,2,0.676515408,1,1,0,-1,-0.22,3,28.11567431
310,6,5,113,1,0.888183018,1,1,2,2,0.44,3,33.70558863
310,7,5,113,1,0.721416489,1,1,2,0,-0.09,4,39.29548758
310,8,4,111,1,0.952033186,0,1,0,0,-0.24,1,44.88548827
310,9,4,111,2,1.242169262,1,1,0,0,-0.04,2,50.77536005
310,10,1,134,-1,NaN,NaN,1,1,1,-0.5,1,57.54974634
310,11,1,134,1,0.696493249,1,1,1,1,0.27,2,63.1389934
310,12,1,134,1,0.597433587,1,1,1,0,-0.07,3,68.42830001
310,13,4,111,2,1.142124477,1,1,0,0,0.05,3,73.71750014
310,14,4,111,2,0.551924769,1,1,0,0,0.04,4,79.74066287
310,15,1,134,1,0.991178826,1,1,1,1,0.28,4,86.51577459
310,16,2,129,2,1.01366534,1,1,0,0,-0.04,4,91.50416722
310,17,1,134,1,1.115023133,1,1,1,1,0.25,5,98.57817455
310,18,4,111,2,0.8549038,1,1,0,-1,-0.28,5,104.1678574
310,19,5,113,1,0.737546578,1,1,2,2,0.44,5,111.5432478
310,20,2,129,2,0.820054663,1,1,0,-1,-0.3,5,117.1327864
310,21,2,129,1,0.510001693,0,1,0,0,-0.23,6,2.035143837
310,22,3,136,1,1.099130922,1,1,1,1,0.21,1,9.113131017
310,23,4,111,2,1.142410779,1,1,0,0,0.01,6,16.18746007
310,24,5,113,1,0.658707093,1,1,2,2,0.46,6,22.0773416
310,25,1,134,1,1.157640017,1,1,1,0,-0.07,6,29.60239898
310,26,4,111,1,1.439923773,0,1,0,0,-0.21,7,36.37660578
310,27,5,113,1,0.70012497,1,1,2,2,0.42,7,42.55093767
310,28,1,134,1,0.989541416,1,1,1,1,0.24,7,47.83988469
310,29,2,129,2,0.78548661,1,1,0,0,0.01,7,54.16318504
310,30,1,134,2,1.037097386,0,1,1,1,-0.08,8,59.15208314
310,31,5,113,1,0.628963324,1,1,2,2,0.41,8,66.52695198
310,32,4,111,1,1.106242628,0,1,0,-1,-0.02,8,74.35250851
310,33,2,129,1,1.211888067,0,1,0,0,-0.25,8,81.94413608
310,34,1,134,2,1.157688575,0,1,1,1,0,9,88.11874507
310,35,2,129,1,1.156246052,0,1,0,0,-0.21,9,92.95619409
310,36,4,111,1,0.959531923,0,1,0,0,-0.26,9,99.88195343
310,37,5,113,1,0.729856519,1,1,2,0,-0.07,9,107.2558104
310,38,5,113,1,0.712176854,1,1,2,2,0.41,10,112.2456923
310,39,4,111,1,1.248383567,0,1,0,0,-0.23,10,119.4691783
310,40,2,129,1,1.117928313,0,1,0,0,-0.24,10,125.6435482
310,41,1,134,1,0.71183047,1,1,1,1,0.23,10,2.041885347
310,42,3,136,1,0.852693818,1,1,1,1,0.24,2,8.069896383
310,43,3,136,1,0.666580692,1,1,1,1,0.21,3,15.89554694
310,44,3,136,1,0.647245732,1,1,1,1,0.28,4,22.06891986
310,45,7,103,1,1.077785598,1,1,2,2,0.5,1,27.21133838
310,46,7,103,1,0.613706725,1,1,2,2,0.5,2,33.53148833
310,47,7,103,1,0.629095995,1,1,2,2,0.49,3,39.70465268
310,48,6,130,1,0.887497966,0,1,0,0,-0.22,1,45.72736452
310,49,6,130,2,0.567766418,1,1,0,0,-0.03,2,51.01817998
310,50,6,130,2,0.593600695,1,1,0,0,-0.01,3,57.19184474
310,51,8,114,1,0.950721651,0,1,0,0,-0.21,1,64.86664958
310,52,8,114,2,0.584916926,1,1,0,0,-0.01,2,71.7904903
310,53,8,114,2,0.605006844,1,1,0,0,0,3,77.68119646
310,54,6,130,1,1.715329997,0,1,0,0,-0.25,4,82.9688137
310,55,3,136,1,0.744420556,1,1,1,1,0.28,5,88.70998008
310,56,7,103,1,1.000592935,1,1,2,0,-0.09,4,94.14853529
310,57,6,130,2,0.938505027,1,1,0,0,-0.01,5,100.039147
310,58,8,114,2,1.328614738,1,1,0,-1,-0.27,4,106.8131427
310,59,8,114,2,0.799933216,1,1,0,0,-0.01,5,112.5527916
310,60,7,103,2,1.140549196,0,1,2,2,-0.05,5,120.0777511
310,61,3,136,1,0.794808186,1,1,1,0,-0.07,6,2.031561621
310,62,6,130,1,1.219861963,0,1,0,0,-0.24,6,8.808644168
310,63,7,103,1,1.200394976,1,1,2,2,0.47,6,15.28235922
310,64,8,114,2,1.138386567,1,1,0,0,-0.05,6,20.87213201
310,65,3,136,1,0.857678685,1,1,1,1,0.27,7,28.24655962
310,66,7,103,1,0.855404707,1,1,2,2,0.45,7,35.17191483
310,67,8,114,2,0.971426698,1,1,0,0,-0.04,7,41.64519083
310,68,6,130,2,0.781803365,1,1,0,-1,-0.22,7,48.11982597
310,69,3,136,1,0.895589477,1,1,1,0,-0.02,8,55.7956635
310,70,7,103,1,1.052577125,1,1,2,2,0.43,8,61.23348419
310,71,6,130,2,0.988174249,1,1,0,0,-0.01,8,67.40743782
310,72,3,136,1,0.767903314,1,1,1,1,0.24,9,73.88177708
310,73,6,130,2,0.93360361,1,1,0,-1,-0.24,9,80.20518156
310,74,8,114,2,1.1865858,1,1,0,0,0.02,8,87.57974566
310,75,7,103,1,1.016361316,1,1,2,0,0,9,94.5043328
310,76,3,136,1,0.968176929,1,1,1,1,0.28,10,102.1791648
310,77,8,114,2,1.216985304,1,1,0,0,-0.01,9,109.705012
310,78,6,130,2,0.909965052,1,1,0,0,0,10,116.4796189
310,79,7,103,1,1.205963545,1,1,2,2,0.47,10,124.0038703
310,80,8,114,2,0.967460282,1,1,0,-1,-0.28,10,128.9929964
311,1,5,103,1,1.43205941,1,1,2,2,0.45,1,2.036695304
311,2,5,103,1,0.834433049,1,1,2,2,0.46,2,9.563236695
311,3,2,137,1,1.257991656,0,1,0,0,-0.28,1,17.3885667
311,4,2,137,2,1.105979589,1,1,0,0,-0.01,2,22.37752286
311,5,2,137,2,1.101413393,1,1,0,-1,-0.26,3,28.11714102
311,6,5,103,1,1.046186351,1,1,2,2,0.5,3,33.70610224
311,7,5,103,1,0.799055895,1,1,2,0,-0.08,4,39.29525126
311,8,4,123,1,1.286727851,0,1,0,0,-0.29,1,44.8851502
311,9,4,123,2,1.079322581,1,1,0,0,-0.03,2,50.77685118
311,10,1,138,1,1.808767596,1,1,1,1,0.23,1,57.55045388
311,11,1,138,1,0.923451303,1,1,1,1,0.29,2,63.14000603
311,12,1,138,1,1.165278849,1,1,1,0,-0.06,3,68.4297694
311,13,4,123,2,1.987388269,1,1,0,0,-0.02,3,73.71872772
311,14,4,123,2,1.071530467,1,1,0,0,0.02,4,79.74230248
311,15,1,138,2,1.757823472,0,1,1,1,-0.04,4,86.51692227
311,16,2,137,1,1.262100197,0,1,0,0,-0.28,4,91.50519972
311,17,1,138,2,1.247278555,0,1,1,1,-0.03,5,98.57996009
311,18,4,123,2,1.155443863,1,1,0,-1,-0.2,5,104.1698109
311,19,5,103,1,0.759118205,1,1,2,2,0.44,5,111.5447559
311,20,2,137,2,1.864367699,1,1,0,-1,-0.22,5,117.1344066
311,21,2,137,1,1.248918306,0,1,0,0,-0.24,6,2.027868706
311,22,3,108,1,0.887762377,1,1,1,1,0.24,1,9.104523632
311,23,4,123,2,1.472030849,1,1,0,0,0.04,6,16.18030039
311,24,5,103,1,0.681301619,1,1,2,2,0.4,6,22.06979302
311,25,1,138,2,1.2012549,0,1,1,0,0.29,6,29.59439419
311,26,4,123,2,1.196730629,1,1,0,0,-0.01,7,36.36971876
311,27,5,103,1,0.795405953,1,1,2,2,0.44,7,42.54313132
311,28,1,138,2,0.941863951,0,1,1,1,-0.03,7,47.83250992
311,29,2,137,2,1.816073298,1,1,0,0,-0.04,7,54.15637893
311,30,1,138,1,1.394597002,1,1,1,1,0.27,8,59.14488925
311,31,5,103,1,0.520180661,1,1,2,2,0.5,8,66.51963998
311,32,4,123,2,1.228794141,1,1,0,-1,-0.25,8,74.34520996
311,33,2,137,1,1.218316895,0,1,0,0,-0.21,8,81.93657812
311,34,1,138,1,1.825121433,1,1,1,1,0.22,9,88.11055887
311,35,2,137,2,1.198048322,1,1,0,0,0.04,9,92.94845584
311,36,4,123,1,1.605194284,0,1,0,0,-0.22,9,99.87392681
311,37,5,103,1,0.574445104,1,1,2,0,-0.06,9,107.2491775
311,38,5,103,1,0.603531296,1,1,2,2,0.48,10,112.23851
311,39,4,123,2,1.918287618,1,1,0,0,-0.03,10,119.4629675
311,40,2,137,2,1.765536924,1,1,0,0,-0.02,10,125.6363762
311,41,1,138,-1,NaN,NaN,1,1,1,-0.5,10,2.039619941
311,42,3,108,1,0.798182345,1,1,1,1,0.24,2,8.065406362
311,43,3,108,1,0.661607344,1,1,1,1,0.23,3,15.89066156
311,44,3,108,1,0.639864224,1,1,1,1,0.3,4,22.06456275
311,45,7,136,1,1.219343794,1,1,2,2,0.48,1,27.20335343
311,46,7,136,1,0.711913477,1,1,2,2,0.48,2,33.52719621
311,47,7,136,1,1.13119622,1,1,2,2,0.47,3,39.70089034
311,48,6,119,1,0.934539432,0,1,0,0,-0.21,1,45.72400206
311,49,6,119,2,0.591040675,1,1,0,0,-0.01,2,51.01329734
311,50,6,119,2,0.721191504,1,1,0,0,0.01,3,57.18800304
311,51,8,104,2,1.394215687,1,1,0,0,0.02,1,64.86270823
311,52,8,104,2,0.52264493,1,1,0,0,-0.03,2,71.78682489
311,53,8,104,2,0.620322008,1,1,0,0,0.02,3,77.67609499
311,54,6,119,2,1.425574156,1,1,0,0,0.04,4,82.9662572
311,55,3,108,1,0.726035796,1,1,1,1,0.26,5,88.70576519
311,56,7,136,1,0.643705685,1,1,2,0,-0.01,4,94.14414752
311,57,6,119,2,1.004993309,1,1,0,0,0.05,5,100.0358923
311,58,8,104,2,0.6095415,1,1,0,-1,-0.22,4,106.8096114
311,59,8,104,2,0.542287522,1,1,0,0,-0.05,5,112.5485895
311,60,7,136,1,0.78034074,1,1,2,2,0.45,5,120.0748251
311,61,3,108,1,0.753386202,1,1,1,0,-0.03,6,2.03684869
311,62,6,119,2,0.817801945,1,1,0,0,0.04,6,8.815530216
311,63,7,136,1,1.048643165,1,1,2,2,0.42,6,15.28859858
311,64,8,104,2,1.005689666,1,1,0,0,-0.01,6,20.8783754
311,65,3,108,1,0.986075621,1,1,1,1,0.25,7,28.25357829
311,66,7,136,1,0.891887109,1,1,2,2,0.43,7,35.17788691
311,67,8,104,2,0.784167493,1,1,0,0,0.03,7,41.65198948
311,68,6,119,2,0.791924298,1,1,0,-1,-0.22,7,48.12507055
311,69,3,108,1,0.878446607,1,1,1,0,-0.06,8,55.80101821
311,70,7,136,1,0.717795286,1,1,2,2,0.49,8,61.24088819
311,71,6,119,1,1.203536466,0,1,0,0,-0.28,8,67.41470622
311,72,3,108,1,0.701525553,1,1,1,1,0.29,9,73.88773276
311,73,6,119,2,1.209076751,1,1,0,-1,-0.24,9,80.21176678
311,74,8,104,2,1.640776351,1,1,0,0,0.05,8,87.58690712
311,75,7,136,1,0.724373737,1,1,2,0,-0.07,9,94.51149373
311,76,3,108,1,0.746269651,1,1,1,1,0.2,10,102.1867115
311,77,8,104,2,1.130985985,1,1,0,0,-0.01,9,109.7117743
311,78,6,119,2,0.713813928,1,1,0,0,-0.02,10,116.4862508
311,79,7,136,1,1.217878935,1,1,2,2,0.43,10,124.0104826
311,80,8,104,2,0.908258215,1,1,0,-1,-0.25,10,129.0003354
276,1,5,128,1,0.756464628,1,1,2,2,0.44,1,2.033096975
276,2,5,128,1,0.677654483,1,1,2,2,0.48,2,9.561919314
276,3,2,103,1,0.716417514,0,1,0,0,-0.26,1,17.38769569
276,4,2,103,2,0.588047028,1,1,0,0,0.03,2,22.37618589
276,5,2,103,1,0.743988734,0,1,0,-1,-0.03,3,28.11662004
276,6,5,128,1,1.059955436,1,1,2,2,0.5,3,33.70573193
276,7,5,128,1,0.642792982,1,1,2,0,-0.09,4,39.29486422
276,8,4,133,2,1.041345691,1,1,0,0,0.02,1,44.88410506
276,9,4,133,2,0.359204383,1,1,0,0,-0.01,2,50.77453519
276,10,1,105,1,0.787005987,1,1,1,1,0.21,1,57.54832354
276,11,1,105,1,0.611976,1,1,1,1,0.21,2,63.13860895
276,12,1,105,1,0.44045429,1,1,1,0,-0.1,3,68.42788867
276,13,4,133,2,0.754525126,1,1,0,0,-0.01,3,73.71736959
276,14,4,133,2,1.018534268,1,1,0,0,0.03,4,79.74058892
276,15,1,105,1,1.138882765,1,1,1,1,0.23,4,86.51394352
276,16,2,103,1,0.839270257,0,1,0,0,-0.23,4,91.5036559
276,17,1,105,1,0.743012169,1,1,1,1,0.21,5,98.57873452
276,18,4,133,2,0.968873126,1,1,0,-1,-0.21,5,104.1671344
276,19,5,128,1,0.603864392,1,1,2,2,0.48,5,111.5426287
276,20,2,103,1,0.560692306,0,1,0,-1,-0.02,5,117.1323549
276,21,2,103,1,0.61933709,0,1,0,0,-0.27,6,2.036170911
276,22,3,122,2,1.395707744,0,1,1,1,-0.09,1,9.113902607
276,23,4,133,2,0.721405106,1,1,0,0,-0.03,6,16.18983726
276,24,5,128,1,0.779907367,1,1,2,2,0.47,6,22.07958349
276,25,1,105,1,0.696731633,1,1,1,0,-0.07,6,29.6046722
276,26,4,133,2,1.232657379,1,1,0,0,-0.01,7,36.37904867
276,27,5,128,1,0.640557912,1,1,2,2,0.44,7,42.55313001
276,28,1,105,2,0.907095484,0,1,1,1,-0.06,7,47.84198396
276,29,2,103,2,0.998813309,1,1,0,0,-0.01,7,54.16562248
276,30,1,105,1,1.198583904,1,1,1,1,0.3,8,59.15482429
276,31,5,128,1,1.113371368,1,1,2,2,0.46,8,66.52948173
276,32,4,133,2,0.789305149,1,1,0,-1,-0.28,8,74.35519005
276,33,2,103,1,0.807476541,0,1,0,0,-0.23,8,81.94702177
276,34,1,105,1,0.560624606,1,1,1,1,0.2,9,88.12038878
276,35,2,103,2,0.751762317,1,1,0,0,0.04,9,92.95820767
276,36,4,133,2,1.599065491,1,1,0,0,-0.01,9,99.88359206
276,37,5,128,1,0.662381435,1,1,2,0,-0.09,9,107.258239
276,38,5,128,1,0.633177991,1,1,2,2,0.45,10,112.2473183
276,39,4,133,1,1.252065357,0,1,0,0,-0.26,10,119.4721272
276,40,2,103,1,1.367395476,0,1,0,0,-0.2,10,125.645406
276,41,1,105,2,1.001276405,0,1,1,1,-0.05,10,2.034884588
276,42,3,122,2,1.438781176,0,1,1,1,-0.08,2,8.060433898
276,43,3,122,1,0.980077916,1,1,1,1,0.29,3,15.88666235
276,44,3,122,1,0.467998602,1,1,1,1,0.2,4,22.06072919
276,45,7,136,1,0.827215005,1,1,2,2,0.49,1,27.19882011
276,46,7,136,1,0.532159312,1,1,2,2,0.44,2,33.52327721
276,47,7,136,1,0.512822116,1,1,2,2,0.41,3,39.69708923
276,48,6,112,1,1.420423888,0,1,0,0,-0.24,1,45.71949162
276,49,6,112,2,0.417748552,1,1,0,0,0.04,2,51.00983765
276,50,6,112,1,1.095525819,0,1,0,0,-0.28,3,57.18258403
276,51,8,106,1,1.566652867,0,1,0,0,-0.24,1,64.85930799
276,52,8,106,2,0.60452079,1,1,0,0,0.03,2,71.78170199
276,53,8,106,2,0.925269798,1,1,0,0,-0.02,3,77.67205256
276,54,6,112,1,0.971835,0,1,0,0,-0.21,4,82.96164419
276,55,3,122,2,1.320100744,0,1,1,1,-0.05,5,88.70163593
276,56,7,136,1,1.320627028,1,1,2,0,-0.02,4,94.1413872
276,57,6,112,2,1.158615022,1,1,0,0,0.01,5,100.0311184
276,58,8,106,2,1.158521395,1,1,0,-1,-0.22,4,106.8043556
276,59,8,106,2,1.269807635,1,1,0,0,-0.04,5,112.5443527
276,60,7,136,2,1.60987138,0,1,2,2,-0.01,5,120.0734203
276,61,3,122,2,1.145181762,0,1,1,0,0.28,6,2.03678926
276,62,6,112,2,1.243614635,1,1,0,0,0.03,6,8.814073912
276,63,7,136,1,0.870591125,1,1,2,2,0.44,6,15.28678802
276,64,8,106,2,1.01830488,1,1,0,0,0.03,6,20.8769177
276,65,3,122,2,0.763404012,0,1,1,1,-0.03,7,28.25239253
276,66,7,136,1,0.744572604,1,1,2,2,0.44,7,35.17658277
276,67,8,106,2,0.642024047,1,1,0,0,-0.02,7,41.65074852
276,68,6,112,2,0.860880094,1,1,0,-1,-0.3,7,48.12402234
276,69,3,122,2,0.792171976,0,1,1,0,0.25,8,55.80010725
276,70,7,136,1,0.682251027,1,1,2,2,0.5,8,61.23903933
276,71,6,112,2,0.947144932,1,1,0,0,-0.05,8,67.41315785
276,72,3,122,2,0.686819076,0,1,1,1,-0.04,9,73.88711427
276,73,6,112,1,0.910000937,0,1,0,-1,0.01,9,80.20995288
276,74,8,106,2,0.664644186,1,1,0,0,0,8,87.58545075
276,75,7,136,1,0.776027011,1,1,2,0,-0.05,9,94.50916635
276,76,3,122,2,0.761557549,0,1,1,1,-0.03,10,102.1849615
276,77,8,106,2,0.681379502,1,1,0,0,0.02,9,109.7138812
276,78,6,112,2,0.963671365,1,1,0,0,0.04,10,116.4839677
276,79,7,136,1,0.905928147,1,1,2,2,0.47,10,124.0095352
276,80,8,106,2,1.444033757,1,1,0,-1,-0.2,10,128.9985259
313,1,5,134,1,1.071940059,1,1,2,2,0.49,1,2.032284873
313,2,5,134,1,1.73964075,1,1,2,2,0.46,2,9.559351729
313,3,2,103,2,1.563249208,1,1,0,0,-0.05,1,17.38488615
313,4,2,103,1,1.470933238,0,1,0,0,-0.22,2,22.3739696
313,5,2,103,2,1.523448862,1,1,0,-1,-0.25,3,28.11336092
313,6,5,134,1,1.097622606,1,1,2,2,0.48,3,33.70307233
313,7,5,134,1,0.610755281,1,1,2,0,-0.02,4,39.29254132
313,8,4,104,2,1.773376316,1,1,0,0,0.02,1,44.88157844
313,9,4,104,2,0.713588599,1,1,0,0,0.03,2,50.77229965
313,10,1,125,-1,NaN,NaN,1,1,1,-0.5,1,57.54661113
313,11,1,125,2,0.813595265,0,1,1,1,-0.06,2,63.13592395
313,12,1,125,1,0.452004723,1,1,1,0,-0.07,3,68.42536515
313,13,4,104,2,1.396577793,1,1,0,0,-0.05,3,73.71468918
313,14,4,104,2,1.096512259,1,1,0,0,0.05,4,79.73889559
313,15,1,125,1,1.065514482,1,1,1,1,0.25,4,86.51146456
313,16,2,103,2,1.746103691,1,1,0,0,0.03,4,91.50129909
313,17,1,125,1,0.961785217,1,1,1,1,0.24,5,98.57625507
313,18,4,104,2,1.048008477,1,1,0,-1,-0.27,5,104.1658488
313,19,5,134,1,0.806239046,1,1,2,2,0.46,5,111.5407573
313,20,2,103,2,0.989656976,1,1,0,-1,-0.23,5,117.1309799
313,21,2,103,1,1.246270966,0,1,0,0,-0.22,6,2.037944395
313,22,3,119,1,1.776216714,1,1,1,1,0.21,1,9.114166524
313,23,4,104,2,1.723300435,1,1,0,0,0.01,6,16.18947877
313,24,5,134,1,0.85279327,1,1,2,2,0.49,6,22.07964096
313,25,1,125,1,1.244644025,1,1,1,0,-0.01,6,29.60449484
313,26,4,104,2,1.432673404,1,1,0,0,0.04,7,36.37935648
313,27,5,134,1,0.76129291,1,1,2,2,0.44,7,42.55235186
313,28,1,125,1,0.989731214,1,1,1,1,0.26,7,47.84090541
313,29,2,103,2,1.616348352,1,1,0,0,0.02,7,54.16561042
313,30,1,125,1,1.237475051,1,1,1,1,0.27,8,59.15464941
313,31,5,134,1,0.720038955,1,1,2,2,0.47,8,66.52985774
313,32,4,104,2,0.819158667,1,1,0,-1,-0.3,8,74.35495803
313,33,2,103,2,0.814495463,1,1,0,0,-0.04,8,81.94706424
313,34,1,125,1,0.88157753,1,1,1,1,0.22,9,88.12035599
313,35,2,103,2,1.063748455,1,1,0,0,0,9,92.95901527
313,36,4,104,2,1.49698906,1,1,0,0,0.04,9,99.88268685
313,37,5,134,1,0.757142949,1,1,2,0,-0.09,9,107.2588399
313,38,5,134,1,0.800923024,1,1,2,2,0.49,10,112.2474541
313,39,4,104,2,0.808297364,1,1,0,0,0,10,119.4723813
313,40,2,103,2,0.701298385,1,1,0,0,0.04,10,125.64589
313,41,1,125,1,0.79767712,1,1,1,1,0.28,10,2.034451818
313,42,3,119,1,0.824705615,1,1,1,1,0.27,2,8.060491117
313,43,3,119,1,0.70531634,1,1,1,1,0.23,3,15.88638267
313,44,3,119,1,0.657220795,1,1,1,1,0.27,4,22.05936885
313,45,7,135,2,1.904054587,0,1,2,2,0.05,1,27.19883657
313,46,7,135,1,1.016000633,1,1,2,2,0.42,2,33.52245982
313,47,7,135,1,0.884430087,1,1,2,2,0.43,3,39.69650707
313,48,6,101,2,1.599322795,1,1,0,0,-0.02,1,45.71938827
313,49,6,101,2,0.766823729,1,1,0,0,-0.03,2,51.00889773
313,50,6,101,2,1.757355662,1,1,0,0,0.04,3,57.18326455
313,51,8,122,1,1.710797105,0,1,0,0,-0.27,1,64.85782065
313,52,8,122,2,1.388781357,1,1,0,0,0.04,2,71.78257437
313,53,8,122,2,0.787984048,1,1,0,0,-0.05,3,77.67305823
313,54,6,101,2,1.566526761,1,1,0,0,0,4,82.96169894
313,55,3,119,1,0.79572841,1,1,1,1,0.3,5,88.7014793
313,56,7,135,1,0.961560282,1,1,2,0,-0.08,4,94.14063423
313,57,6,101,2,0.900582182,1,1,0,0,-0.04,5,100.03021
313,58,8,122,2,1.078157976,1,1,0,-1,-0.26,4,106.8053738
313,59,8,122,2,0.941179399,1,1,0,0,-0.02,5,112.5452196
313,60,7,135,1,0.732018086,1,1,2,2,0.41,5,120.0689535
313,61,3,119,1,0.779588083,1,1,1,0,-0.02,6,2.043489555
313,62,6,101,2,1.072664376,1,1,0,0,0.02,6,8.820340058
313,63,7,135,1,0.841463273,1,1,2,2,0.45,6,15.29357513
313,64,8,122,2,1.314038314,1,1,0,0,0.01,6,20.88359894
313,65,3,119,1,0.760809938,1,1,1,1,0.23,7,28.25838858
313,66,7,135,1,0.761098449,1,1,2,2,0.49,7,35.18330258
313,67,8,122,2,0.99501548,1,1,0,0,0.03,7,41.65691402
313,68,6,101,2,1.122192813,1,1,0,-1,-0.26,7,48.13104231
313,69,3,119,1,0.787117813,1,1,1,0,-0.07,8,55.80584225
313,70,7,135,1,0.721336894,1,1,2,2,0.45,8,61.24503879
313,71,6,101,2,0.713214583,1,1,0,0,0.04,8,67.41891481
313,72,3,119,1,1.07191362,1,1,1,1,0.21,9,73.89183279
313,73,6,101,2,0.780102475,1,1,0,-1,-0.21,9,80.21643978
313,74,8,122,2,1.269410589,1,1,0,0,-0.01,8,87.59118454
313,75,7,135,1,1.037655275,1,1,2,0,-0.09,9,94.51620821
313,76,3,119,1,0.888709978,1,1,1,1,0.26,10,102.1913545
313,77,8,122,2,0.834608792,1,1,0,0,0.04,9,109.7163151
313,78,6,101,2,1.531205398,1,1,0,0,-0.04,10,116.4906217
313,79,7,135,1,0.709709637,1,1,2,2,0.46,10,124.0162567
313,80,8,122,2,0.8043451,1,1,0,-1,-0.27,10,129.0050768
314,1,5,138,-1,NaN,NaN,1,2,2,-0.5,1,2.034121424
314,2,5,138,1,0.498248148,1,1,2,2,0.41,2,9.562677803
314,3,2,134,1,1.684940332,0,1,0,0,-0.21,1,17.38742174
314,4,2,134,2,0.487204329,1,1,0,0,0.05,2,22.37667867
314,5,2,134,2,1.15544614,1,1,0,-1,-0.23,3,28.11619142
314,6,5,138,-1,NaN,NaN,1,2,2,-0.5,3,33.7052792
314,7,5,138,1,0.824736181,1,1,2,0,-0.01,4,39.29561565
314,8,4,115,1,1.141060979,0,1,0,0,-0.23,1,44.8853973
314,9,4,115,2,0.615122337,1,1,0,0,-0.02,2,50.77481999
314,10,1,118,2,1.430895985,0,1,1,1,0,1,57.54976998
314,11,1,118,1,1.033772879,1,1,1,1,0.27,2,63.13928896
314,12,1,118,1,0.999611885,1,1,1,0,-0.04,3,68.4281645
314,13,4,115,2,1.674212364,1,1,0,0,-0.04,3,73.71746061
314,14,4,115,2,0.926516854,1,1,0,0,0.04,4,79.74189967
314,15,1,118,1,1.006662102,1,1,1,1,0.28,4,86.51551764
314,16,2,134,2,1.483510278,1,1,0,0,0.03,4,91.50378065
314,17,1,118,1,1.652395623,1,1,1,1,0.24,5,98.57851382
314,18,4,115,2,0.916270826,1,1,0,-1,-0.29,5,104.1687092
314,19,5,138,1,1.156200586,1,1,2,2,0.41,5,111.5437159
314,20,2,134,2,1.684306222,1,1,0,-1,-0.25,5,117.1327575
314,21,2,134,1,0.972518482,0,1,0,0,-0.2,6,2.031753057
314,22,3,113,1,1.67015422,1,1,1,1,0.25,1,9.110898271
314,23,4,115,2,1.591543853,1,1,0,0,-0.04,6,16.18540562
314,24,5,138,1,1.196139722,1,1,2,2,0.49,6,22.07385464
314,25,1,118,1,0.856714847,1,1,1,0,-0.08,6,29.60058321
314,26,4,115,2,1.498610403,1,1,0,0,0.03,7,36.37484885
314,27,5,138,1,1.822304578,1,1,2,2,0.44,7,42.54772373
314,28,1,118,2,1.091383936,0,1,1,1,-0.09,7,47.8369853
314,29,2,134,2,1.235565662,1,1,0,0,-0.03,7,54.16196201
314,30,1,118,2,1.499790425,0,1,1,1,-0.04,8,59.14917876
314,31,5,138,1,1.325643397,1,1,2,2,0.43,8,66.5238919
314,32,4,115,2,0.928840097,1,1,0,-1,-0.2,8,74.35061361
314,33,2,134,1,1.743936885,0,1,0,0,-0.28,8,81.94185398
314,34,1,118,1,1.981365663,1,1,1,1,0.26,9,88.11555224
314,35,2,134,2,0.875085068,1,1,0,0,-0.04,9,92.95391288
314,36,4,115,2,0.914727496,1,1,0,0,0.01,9,99.87813689
314,37,5,138,1,0.870095641,1,1,2,0,-0.05,9,107.2528094
314,38,5,138,1,0.645927608,1,1,2,2,0.4,10,112.2423017
314,39,4,115,2,0.689117936,1,1,0,0,-0.01,10,119.4664681
314,40,2,134,2,1.580113318,1,1,0,0,-0.04,10,125.640984
314,41,1,118,2,1.464870803,0,1,1,1,-0.01,10,2.032941223
314,42,3,113,1,1.122669339,1,1,1,1,0.23,2,8.06079028
314,43,3,113,1,1.011798187,1,1,1,1,0.3,3,15.88594252
314,44,3,113,1,0.748015927,1,1,1,1,0.24,4,22.05992245
314,45,7,137,1,1.479437042,1,1,2,2,0.4,1,27.19851069
314,46,7,137,1,0.641396499,1,1,2,2,0.43,2,33.52254718
314,47,7,137,1,0.652059372,1,1,2,2,0.49,3,39.69553514
314,48,6,106,1,0.9604123,0,1,0,0,-0.23,1,45.71863867
314,49,6,106,2,0.444772882,1,1,0,0,0.03,2,51.00806455
314,50,6,106,2,0.489746915,1,1,0,0,0.05,3,57.18184916
314,51,8,116,1,0.961794202,0,1,0,0,-0.21,1,64.85630291
314,52,8,116,2,0.337475114,1,1,0,0,0.02,2,71.78137751
314,53,8,116,2,0.338872659,1,1,0,0,-0.05,3,77.67101998
314,54,6,106,1,0.88959928,0,1,0,0,-0.3,4,82.95999042
314,55,3,113,1,0.733949133,1,1,1,1,0.28,5,88.70099694
314,56,7,137,1,0.713891903,1,1,2,0,-0.09,4,94.13963649
314,57,6,106,2,0.620674746,1,1,0,0,-0.03,5,100.0295338
314,58,8,116,2,0.746778976,1,1,0,-1,-0.29,4,106.8029024
314,59,8,116,2,0.594395518,1,1,0,0,0.04,5,112.5434321
314,60,7,137,1,1.135247173,1,1,2,2,0.48,5,120.068508
314,61,3,113,1,0.9628596,1,1,1,0,-0.01,6,2.028145285
314,62,6,106,-1,NaN,NaN,1,0,0,-0.5,6,8.806575355
314,63,7,137,1,0.662780315,1,1,2,2,0.46,6,15.28066976
314,64,8,116,2,0.777474559,1,1,0,0,-0.05,6,20.8702204
314,65,3,113,1,0.526743528,1,1,1,1,0.28,7,28.24516469
314,66,7,137,1,0.765714167,1,1,2,2,0.49,7,35.16956737
314,67,8,116,2,0.660040639,1,1,0,0,0.03,7,41.64226163
314,68,6,106,2,0.828091555,1,1,0,-1,-0.23,7,48.11701527
314,69,3,113,1,0.689152269,1,1,1,0,-0.07,8,55.79124165
314,70,7,137,1,0.580634396,1,1,2,2,0.47,8,61.23174058
314,71,6,106,2,0.800927644,1,1,0,0,-0.01,8,67.40500053
314,72,3,113,1,0.647527493,1,1,1,1,0.29,9,73.87907086
314,73,6,106,2,0.633288847,1,1,0,-1,-0.25,9,80.20365957
314,74,8,116,2,0.59268128,1,1,0,0,-0.01,8,87.5780661
314,75,7,137,1,0.718089324,1,1,2,0,-0.09,9,94.50158384
314,76,3,113,1,1.035898292,1,1,1,1,0.24,10,102.1773445
314,77,8,116,2,0.588382816,1,1,0,0,0.03,9,109.7023909
314,78,6,106,2,0.708169789,1,1,0,0,-0.05,10,116.4777673
314,79,7,137,1,0.790662641,1,1,2,2,0.42,10,124.0026284
314,80,8,116,2,0.608631316,1,1,0,-1,-0.24,10,128.9903356
278,1,5,101,1,0.539220532,1,1,2,2,0.43,1,2.040683519
278,2,5,101,1,0.715221146,1,1,2,2,0.41,2,9.567310875
278,3,2,121,1,1.736221861,0,1,0,0,-0.3,1,17.39240339
278,4,2,121,2,0.601804701,1,1,0,0,0,2,22.38184524
278,5,2,121,2,0.928969366,1,1,0,-1,-0.29,3,28.12186208
278,6,5,101,1,0.919527958,1,1,2,2,0.41,3,33.71124548
278,7,5,101,1,0.798136816,1,1,2,0,-0.04,4,39.30012193
278,8,4,105,1,0.957206947,0,1,0,0,-0.29,1,44.89053453
278,9,4,105,2,0.578547989,1,1,0,0,0.05,2,50.78027416
278,10,1,120,1,0.790693335,1,1,1,1,0.25,1,57.55483361
278,11,1,120,1,0.655549542,1,1,1,1,0.22,2,63.14459495
278,12,1,120,1,0.767466042,1,1,1,0,-0.01,3,68.43392075
278,13,4,105,2,1.016686854,1,1,0,0,0.02,3,73.72348976
278,14,4,105,2,0.674918906,1,1,0,0,-0.04,4,79.74658402
278,15,1,120,1,0.774353824,1,1,1,1,0.29,4,86.52055233
278,16,2,121,2,1.149533917,1,1,0,0,0,4,91.51080014
278,17,1,120,1,0.849676257,1,1,1,1,0.26,5,98.58481724
278,18,4,105,2,0.861317857,1,1,0,-1,-0.27,5,104.1745775
278,19,5,101,1,0.871344245,1,1,2,2,0.43,5,111.5492125
278,20,2,121,2,0.850154732,1,1,0,-1,-0.26,5,117.1379698
278,21,2,121,1,0.928121887,0,1,0,0,-0.27,6,2.032199798
278,22,3,106,1,0.809854839,1,1,1,1,0.27,1,9.110009052
278,23,4,105,2,1.003836867,1,1,0,0,0.03,6,16.18494486
278,24,5,101,1,0.934089666,1,1,2,2,0.5,6,22.07458981
278,25,1,120,1,0.677607123,1,1,1,0,-0.05,6,29.59904176
278,26,4,105,2,0.85549227,1,1,0,0,0.02,7,36.37417064
278,27,5,101,1,0.861530552,1,1,2,2,0.44,7,42.54700255
278,28,1,120,1,0.813596838,1,1,1,1,0.24,7,47.83603348
278,29,2,121,2,0.853162216,1,1,0,0,0.03,7,54.16079472
278,30,1,120,1,0.718458754,1,1,1,1,0.21,8,59.14938458
278,31,5,101,1,0.781008451,1,1,2,2,0.41,8,66.52442034
278,32,4,105,2,1.076423143,1,1,0,-1,-0.25,8,74.35043275
278,33,2,121,2,1.24635862,1,1,0,0,-0.03,8,81.94248629
278,34,1,120,1,0.876515461,1,1,1,1,0.29,9,88.11591765
278,35,2,121,2,0.946043412,1,1,0,0,0.05,9,92.9533977
278,36,4,105,2,0.849378758,1,1,0,0,-0.02,9,99.8788288
278,37,5,101,1,0.715928911,1,1,2,0,-0.1,9,107.2540525
278,38,5,101,1,0.736297463,1,1,2,2,0.45,10,112.2421143
278,39,4,105,2,0.802534519,1,1,0,0,0.02,10,119.4674046
278,40,2,121,2,0.846698736,1,1,0,0,-0.01,10,125.6414489
278,41,1,120,1,0.589824359,1,1,1,1,0.27,10,2.02992248
278,42,3,106,1,0.645507189,1,1,1,1,0.24,2,8.056747194
278,43,3,106,1,0.610028322,1,1,1,1,0.26,3,15.88133732
278,44,3,106,1,0.635294048,1,1,1,1,0.3,4,22.05521111
278,45,7,133,1,0.898080027,1,1,2,2,0.47,1,27.19354338
278,46,7,133,1,0.716399067,1,1,2,2,0.44,2,33.51900663
278,47,7,133,1,0.836335963,1,1,2,2,0.42,3,39.69152897
278,48,6,123,1,0.8727414,0,1,0,0,-0.25,1,45.7152619
278,49,6,123,2,0.501451026,1,1,0,0,0.04,2,51.00507147
278,50,6,123,2,0.67631636,1,1,0,0,-0.04,3,57.17847113
278,51,8,104,1,0.748834973,0,1,0,0,-0.25,1,64.85327912
278,52,8,104,2,0.553454318,1,1,0,0,-0.01,2,71.7775689
278,53,8,104,2,0.739605316,1,1,0,0,0.02,3,77.66779867
278,54,6,123,1,0.963940533,0,1,0,0,-0.23,4,82.95617101
278,55,3,106,1,0.714040811,1,1,1,1,0.21,5,88.696413
278,56,7,133,1,0.671595646,1,1,2,0,-0.01,4,94.13639979
278,57,6,123,1,0.745371713,0,1,0,0,-0.25,5,100.0259954
278,58,8,104,1,0.744015424,0,1,0,-1,-0.02,4,106.8004421
278,59,8,104,1,0.654064302,0,1,0,0,-0.25,5,112.5406839
278,60,7,133,1,0.724311984,1,1,2,2,0.45,5,120.0656718
278,61,3,106,1,0.569401725,1,1,1,0,-0.02,6,2.027246606
278,62,6,123,2,1.223083289,1,1,0,0,0.04,6,8.804486695
278,63,7,133,1,0.711930496,1,1,2,2,0.47,6,15.27843178
278,64,8,104,2,0.780076857,1,1,0,0,0,6,20.86875176
278,65,3,106,1,0.68423539,1,1,1,1,0.3,7,28.24303543
278,66,7,133,1,0.608090103,1,1,2,2,0.41,7,35.16660429
278,67,8,104,2,0.886671781,1,1,0,0,0.01,7,41.64155382
278,68,6,123,2,0.914250206,1,1,0,-1,-0.28,7,48.11526182
278,69,3,106,1,0.699666136,1,1,1,0,-0.05,8,55.79057899
278,70,7,133,1,0.557985625,1,1,2,2,0.47,8,61.23002284
278,71,6,123,2,0.795626939,1,1,0,0,0,8,67.40348954
278,72,3,106,1,0.690090263,1,1,1,1,0.21,9,73.87784993
278,73,6,123,2,0.780152462,1,1,0,-1,-0.28,9,80.20174864
278,74,8,104,2,0.671759511,1,1,0,0,0,8,87.57613565
278,75,7,133,1,0.644589114,1,1,2,0,-0.02,9,94.50147613
278,76,3,106,1,0.613680985,1,1,1,1,0.28,10,102.1753391
278,77,8,104,2,0.817061669,1,1,0,0,-0.04,9,109.7012857
278,78,6,123,1,0.906048946,0,1,0,0,-0.21,10,116.4754911
278,79,7,133,1,0.824245015,1,1,2,2,0.47,10,124.0009749
278,80,8,104,2,0.811597782,1,1,0,-1,-0.21,10,128.9898873
269,1,5,101,1,0.502308457,1,1,2,2,0.48,1,2.04216165
269,2,5,101,1,0.659656336,1,1,2,2,0.45,2,9.571344836
269,3,2,112,2,0.785244034,1,1,0,0,0.02,1,17.39651124
269,4,2,112,1,0.796225538,0,1,0,0,-0.27,2,22.38539826
269,5,2,112,2,0.510481075,1,1,0,-1,-0.26,3,28.12549775
269,6,5,101,1,0.736826136,1,1,2,2,0.42,3,33.71511105
269,7,5,101,1,0.636925763,1,1,2,0,-0.06,4,39.30374966
269,8,4,110,1,0.910562312,0,1,0,0,-0.23,1,44.89340021
269,9,4,110,2,0.501245267,1,1,0,0,-0.03,2,50.78357902
269,10,1,121,1,0.697074757,1,1,1,1,0.2,1,57.55890722
269,11,1,121,1,0.476489396,1,1,1,1,0.3,2,63.14785528
269,12,1,121,1,0.63097815,1,1,1,0,-0.05,3,68.4367298
269,13,4,110,1,1.014006123,0,1,0,0,-0.29,3,73.72516936
269,14,4,110,2,0.702708211,1,1,0,0,-0.05,4,79.75016906
269,15,1,121,1,0.98757744,1,1,1,1,0.26,4,86.52348661
269,16,2,112,1,0.721367994,0,1,0,0,-0.26,4,91.51184439
269,17,1,121,1,0.645130581,1,1,1,1,0.22,5,98.58712155
269,18,4,110,2,0.771651831,1,1,0,-1,-0.29,5,104.1768264
269,19,5,101,1,0.755229037,1,1,2,2,0.48,5,111.550709
269,20,2,112,1,1.227191927,0,1,0,-1,-0.04,5,117.141505
269,21,2,112,1,0.752849515,0,1,0,0,-0.29,6,2.026546171
269,22,3,126,1,0.741579996,1,1,1,1,0.2,1,9.106999483
269,23,4,110,1,1.279104767,0,1,0,0,-0.27,6,16.18026298
269,24,5,101,1,0.693201416,1,1,2,2,0.44,6,22.07178062
269,25,1,121,1,0.605583797,1,1,1,0,-0.05,6,29.59615409
269,26,4,110,2,0.760325509,1,1,0,0,-0.03,7,36.37016257
269,27,5,101,1,0.566253841,1,1,2,2,0.47,7,42.54442362
269,28,1,121,1,0.696685466,1,1,1,1,0.26,7,47.83344968
269,29,2,112,2,0.782214599,1,1,0,0,0.03,7,54.15638985
269,30,1,121,1,0.552451793,1,1,1,1,0.29,8,59.14626478
269,31,5,101,1,0.452012185,1,1,2,2,0.44,8,66.5211247
269,32,4,110,2,0.718842012,1,1,0,-1,-0.22,8,74.34680498
269,33,2,112,2,0.736775388,1,1,0,0,0.01,8,81.93860096
269,34,1,121,1,0.43134003,1,1,1,1,0.28,9,88.111572
269,35,2,112,2,0.759433318,1,1,0,0,0.03,9,92.94971534
269,36,4,110,2,0.754542162,1,1,0,0,-0.01,9,99.87550635
269,37,5,101,1,0.579432228,1,1,2,0,-0.07,9,107.2489279
269,38,5,101,1,0.561127466,1,1,2,2,0.45,10,112.2385762
269,39,4,110,2,0.604812372,1,1,0,0,0.04,10,119.4626584
269,40,2,112,2,0.660523606,1,1,0,0,0.02,10,125.6368096
269,41,1,121,1,0.770940806,1,1,1,1,0.28,10,2.029645398
269,42,3,126,1,0.58285849,1,1,1,1,0.26,2,8.056318613
269,43,3,126,1,0.546672967,1,1,1,1,0.26,3,15.88126476
269,44,3,126,1,0.440911875,1,1,1,1,0.27,4,22.05563555
269,45,7,111,1,0.847412768,1,1,2,2,0.49,1,27.1942077
269,46,7,111,1,0.459182071,1,1,2,2,0.42,2,33.51771376
269,47,7,111,1,0.489287889,1,1,2,2,0.48,3,39.69127259
269,48,6,119,1,0.746069035,0,1,0,0,-0.28,1,45.71347821
269,49,6,119,2,0.45937833,1,1,0,0,-0.01,2,51.00445412
269,50,6,119,2,0.538189297,1,1,0,0,-0.04,3,57.17786007
269,51,8,123,1,0.64197088,0,1,0,0,-0.28,1,64.85279217
269,52,8,123,2,0.521294774,1,1,0,0,-0.03,2,71.77780962
269,53,8,123,2,0.422978763,1,1,0,0,-0.02,3,77.66724537
269,54,6,119,2,0.965468053,1,1,0,0,0.03,4,82.95738252
269,55,3,126,1,0.632379866,1,1,1,1,0.22,5,88.69607293
269,56,7,111,1,0.664014984,1,1,2,0,-0.04,4,94.13535046
269,57,6,119,2,0.68163299,1,1,0,0,0,5,100.0249757
269,58,8,123,2,0.767320709,1,1,0,-1,-0.21,4,106.7998824
269,59,8,123,2,0.56611024,1,1,0,0,-0.03,5,112.5397349
269,60,7,111,1,0.535183683,1,1,2,2,0.41,5,120.0644143
269,61,3,126,1,0.565124222,1,1,1,0,0,6,2.040460339
269,62,6,119,2,0.746893836,1,1,0,0,-0.02,6,8.820158447
269,63,7,111,1,0.583768216,1,1,2,2,0.49,6,15.29418758
269,64,8,123,1,0.711952318,0,1,0,0,-0.24,6,20.88381359
269,65,3,126,1,0.62279582,1,1,1,1,0.26,7,28.25747818
269,66,7,111,1,0.594955012,1,1,2,2,0.45,7,35.18268197
269,67,8,123,2,0.691515842,1,1,0,0,0.02,7,41.65718594
269,68,6,119,2,0.605554347,1,1,0,-1,-0.28,7,48.13061388
269,69,3,126,1,0.526297018,1,1,1,0,-0.05,8,55.80589399
269,70,7,111,1,0.588407833,1,1,2,2,0.47,8,61.24524557
269,71,6,119,2,0.618096145,1,1,0,0,0.02,8,67.41761685
269,72,3,126,1,0.535647607,1,1,1,1,0.24,9,73.89263655
269,73,6,119,2,0.476878306,1,1,0,-1,-0.24,9,80.21680564
269,74,8,123,2,0.859925484,1,1,0,0,0,8,87.59130859
269,75,7,111,1,0.500200663,1,1,2,0,-0.01,9,94.5155411
269,76,3,126,1,0.752728724,1,1,1,1,0.23,10,102.1906232
269,77,8,123,2,0.674894008,1,1,0,0,0,9,109.7154347
269,78,6,119,2,0.751786268,1,1,0,0,-0.03,10,116.4905306
269,79,7,111,1,0.475302985,1,1,2,2,0.46,10,124.0159456
269,80,8,123,2,0.693475496,1,1,0,-1,-0.21,10,129.0044642
317,1,5,106,1,0.650146579,1,1,2,2,0.48,1,2.041853063
317,2,5,106,1,0.736210054,1,1,2,2,0.49,2,9.570782592
317,3,2,125,1,1.101292222,0,1,0,0,-0.2,1,17.39516213
317,4,2,125,2,0.791999616,1,1,0,0,0.02,2,22.38513775
317,5,2,125,2,0.884304243,1,1,0,-1,-0.27,3,28.12472295
317,6,5,106,1,1.422922191,1,1,2,2,0.41,3,33.71458221
317,7,5,106,1,1.041280557,1,1,2,0,-0.06,4,39.30395955
317,8,4,111,1,1.419712832,0,1,0,0,-0.22,1,44.89377962
317,9,4,111,2,0.86951543,1,1,0,0,0.01,2,50.78362305
317,10,1,103,1,1.203627841,1,1,1,1,0.3,1,57.55763277
317,11,1,103,1,0.867998745,1,1,1,1,0.27,2,63.14747708
317,12,1,103,1,0.788553831,1,1,1,0,-0.06,3,68.4367435
317,13,4,111,2,1.364003031,1,1,0,0,0.04,3,73.72594951
317,14,4,111,2,0.863445797,1,1,0,0,0.05,4,79.74929384
317,15,1,103,1,1.371036498,1,1,1,1,0.3,4,86.5234107
317,16,2,125,2,0.922484484,1,1,0,0,0.01,4,91.5113388
317,17,1,103,1,0.790252519,1,1,1,1,0.25,5,98.58657973
317,18,4,111,2,1.098867324,1,1,0,-1,-0.27,5,104.1762605
317,19,5,106,1,0.846803391,1,1,2,2,0.46,5,111.5514654
317,20,2,125,2,0.841954301,1,1,0,-1,-0.27,5,117.1411958
317,21,2,125,2,1.158043171,1,1,0,0,-0.02,6,2.03878416
317,22,3,117,1,1.076552712,1,1,1,1,0.27,1,9.117190694
317,23,4,111,2,1.104402169,1,1,0,0,-0.03,6,16.19292995
317,24,5,106,1,0.82781307,1,1,2,2,0.46,6,22.08216942
317,25,1,103,1,0.960673587,1,1,1,0,-0.07,6,29.60679365
317,26,4,111,1,1.162775622,0,1,0,0,-0.29,7,36.38179922
317,27,5,106,1,0.876623776,1,1,2,2,0.49,7,42.55488187
317,28,1,103,1,0.862712493,1,1,1,1,0.26,7,47.84402826
317,29,2,125,-1,NaN,NaN,1,0,0,-0.5,7,54.1681316
317,30,1,103,1,0.970799716,1,1,1,1,0.26,8,59.15615068
317,31,5,106,1,0.793598192,1,1,2,2,0.43,8,66.53202002
317,32,4,111,2,1.259546648,1,1,0,-1,-0.22,8,74.3573547
317,33,2,125,2,0.866365036,1,1,0,0,-0.04,8,81.94965281
317,34,1,103,1,0.962970683,1,1,1,1,0.24,9,88.12282125
317,35,2,125,1,1.493219371,0,1,0,0,-0.21,9,92.9610332
317,36,4,111,2,0.953982724,1,1,0,0,-0.02,9,99.88570281
317,37,5,106,1,0.759655283,1,1,2,0,-0.06,9,107.2606753
317,38,5,106,1,0.723045874,1,1,2,2,0.47,10,112.2496184
317,39,4,111,2,1.086787076,1,1,0,0,-0.01,10,119.4748725
317,40,2,125,2,1.00594077,1,1,0,0,-0.01,10,125.6488201
317,41,1,103,1,0.703699524,1,1,1,1,0.21,10,2.042834793
317,42,3,117,2,1.266946526,0,1,1,1,-0.09,2,8.0707964
317,43,3,117,2,0.79915514,0,1,1,1,0,3,15.89539818
317,44,3,117,2,1.57362286,0,1,1,1,-0.07,4,22.06977131
317,45,7,119,1,0.953567486,1,1,2,2,0.48,1,27.20861853
317,46,7,119,1,0.591827485,1,1,2,2,0.48,2,33.53258058
317,47,7,119,1,0.889122396,1,1,2,2,0.4,3,39.70649811
317,48,6,115,1,1.346768682,0,1,0,0,-0.2,1,45.73020651
317,49,6,115,2,0.623532718,1,1,0,0,0.01,2,51.01902679
317,50,6,115,2,0.658191311,1,1,0,0,0.01,3,57.19229815
317,51,8,118,2,1.355639636,1,1,0,0,0,1,64.86789777
317,52,8,118,2,0.64263887,1,1,0,0,0,2,71.79207722
317,53,8,118,2,0.884487735,1,1,0,0,0,3,77.68118133
317,54,6,115,2,1.916815129,1,1,0,0,0,4,82.97150921
317,55,3,117,1,1.270311259,1,1,1,1,0.29,5,88.71072723
317,56,7,119,1,1.223333795,1,1,2,0,-0.05,4,94.15070112
317,57,6,115,2,1.271329745,1,1,0,0,0.02,5,100.0402092
317,58,8,118,2,0.781063518,1,1,0,-1,-0.24,4,106.8149947
317,59,8,118,2,0.677426735,1,1,0,0,-0.03,5,112.553874
317,60,7,119,1,0.809859746,1,1,2,2,0.49,5,120.0801352
317,61,3,117,1,0.771087253,1,1,1,0,-0.04,6,2.044548592
317,62,6,115,2,0.68422263,1,1,0,0,-0.03,6,8.82152958
317,63,7,119,1,0.780783773,1,1,2,2,0.46,6,15.29589329
317,64,8,118,2,0.731563272,1,1,0,0,-0.04,6,20.88468303
317,65,3,117,1,0.643681548,1,1,1,1,0.29,7,28.25962761
317,66,7,119,1,1.305994756,1,1,2,2,0.43,7,35.1849869
317,67,8,118,2,0.771222393,1,1,0,0,-0.01,7,41.65784877
317,68,6,115,2,0.763465334,1,1,0,-1,-0.26,7,48.13243073
317,69,3,117,1,1.350173717,1,1,1,0,-0.02,8,55.8072246
317,70,7,119,1,1.531948256,1,1,2,2,0.47,8,61.24715489
317,71,6,115,2,1.309690247,1,1,0,0,0.03,8,67.42015107
317,72,3,117,1,1.141210471,1,1,1,1,0.23,9,73.89448378
317,73,6,115,2,1.038500734,1,1,0,-1,-0.24,9,80.21850919
317,74,8,118,2,0.842420826,1,1,0,0,-0.03,8,87.59228033
317,75,7,119,1,0.995705851,1,1,2,0,-0.01,9,94.51753075
317,76,3,117,1,0.787155175,1,1,1,1,0.21,10,102.1928364
317,77,8,118,2,1.169629902,1,1,0,0,-0.04,9,109.7173776
317,78,6,115,2,1.338252802,1,1,0,0,-0.04,10,116.4919966
317,79,7,119,1,1.340937009,1,1,2,2,0.48,10,124.0174903
317,80,8,118,2,1.605297777,1,1,0,-1,-0.24,10,129.0060979
319,1,5,107,1,1.099242524,1,1,2,2,0.44,1,2.028033355
319,2,5,107,1,0.548271085,1,1,2,2,0.45,2,9.556519787
319,3,2,120,2,0.823404604,1,1,0,0,-0.02,1,17.38270693
319,4,2,120,1,0.863550496,0,1,0,0,-0.23,2,22.37055216
319,5,2,120,2,0.816821782,1,1,0,-1,-0.28,3,28.11078323
319,6,5,107,1,0.840951528,1,1,2,2,0.46,3,33.70060445
319,7,5,107,1,0.706453695,1,1,2,0,0,4,39.28917181
319,8,4,117,1,1.102174035,0,1,0,0,-0.21,1,44.87964249
319,9,4,117,2,0.655013173,1,1,0,0,-0.05,2,50.76951129
319,10,1,118,1,1.702939289,1,1,1,1,0.28,1,57.54407254
319,11,1,118,1,0.818468313,1,1,1,1,0.25,2,63.13331279
319,12,1,118,1,0.794511145,1,1,1,0,-0.01,3,68.42315965
319,13,4,117,-1,NaN,NaN,1,0,0,-0.5,3,73.71218329
319,14,4,117,2,1.0551927,1,1,0,0,0.04,4,79.7357981
319,15,1,118,1,1.225941132,1,1,1,1,0.22,4,86.50924866
319,16,2,120,2,0.839283652,1,1,0,0,-0.03,4,91.49833203
319,17,1,118,2,1.37970878,0,1,1,1,-0.01,5,98.57340751
319,18,4,117,2,0.944177141,1,1,0,-1,-0.23,5,104.1625066
319,19,5,107,1,0.744663556,1,1,2,2,0.45,5,111.5372847
319,20,2,120,1,1.106577515,0,1,0,-1,-0.03,5,117.1268118
319,21,2,120,1,0.908659853,0,1,0,0,-0.24,6,2.029355801
319,22,3,104,1,1.075474252,1,1,1,1,0.3,1,9.108262758
319,23,4,117,2,1.593843918,1,1,0,0,-0.05,6,16.18294298
319,24,5,107,1,0.880410785,1,1,2,2,0.4,6,22.07217521
319,25,1,118,1,1.290473746,1,1,1,0,-0.07,6,29.59806701
319,26,4,117,2,1.32946321,1,1,0,0,0.04,7,36.37157524
319,27,5,107,1,0.695364072,1,1,2,2,0.44,7,42.54567529
319,28,1,118,2,0.96023722,0,1,1,1,-0.06,7,47.83456994
319,29,2,120,2,0.642096095,1,1,0,0,-0.03,7,54.15813927
319,30,1,118,2,0.919970399,0,1,1,1,-0.1,8,59.14783658
319,31,5,107,1,0.465788227,1,1,2,2,0.41,8,66.52126781
319,32,4,117,2,1.058229768,1,1,0,-1,-0.25,8,74.34707492
319,33,2,120,1,1.060285491,0,1,0,0,-0.24,8,81.93950339
319,34,1,118,2,0.56408356,0,1,1,1,-0.09,9,88.11254501
319,35,2,120,2,1.171425997,1,1,0,0,-0.02,9,92.9507545
319,36,4,117,1,1.614511687,0,1,0,0,-0.25,9,99.87582627
319,37,5,107,1,0.585700945,1,1,2,0,-0.06,9,107.2503652
319,38,5,107,1,0.625735343,1,1,2,2,0.45,10,112.240137
319,39,4,117,2,1.25342386,1,1,0,0,0,10,119.4650133
319,40,2,120,2,0.562778275,1,1,0,0,-0.01,10,125.6384265
319,41,1,118,2,0.885698639,0,1,1,1,-0.09,10,2.031413279
319,42,3,104,1,1.04163601,1,1,1,1,0.27,2,8.060031242
319,43,3,104,1,0.72507445,1,1,1,1,0.26,3,15.88599688
319,44,3,104,1,0.61362919,1,1,1,1,0.27,4,22.05794286
319,45,7,121,1,1.51653784,1,1,2,2,0.42,1,27.19759253
319,46,7,121,1,0.726023097,1,1,2,2,0.49,2,33.52104472
319,47,7,121,1,0.65044966,1,1,2,2,0.42,3,39.69471687
319,48,6,111,1,1.140451168,0,1,0,0,-0.23,1,45.71809918
319,49,6,111,2,0.680091062,1,1,0,0,0.04,2,51.00769959
319,50,6,111,2,0.66267064,1,1,0,0,0.02,3,57.18106336
319,51,8,113,2,1.577537008,1,1,0,0,0.03,1,64.85574499
319,52,8,113,2,0.561799928,1,1,0,0,-0.04,2,71.78067289
319,53,8,113,2,0.611332723,1,1,0,0,0.02,3,77.67043297
319,54,6,111,2,0.894892492,1,1,0,0,0,4,82.95983757
319,55,3,104,1,0.757354482,1,1,1,1,0.26,5,88.69980775
319,56,7,121,2,1.485388319,0,1,2,0,0.45,4,94.13925093
319,57,6,111,2,0.982014363,1,1,0,0,-0.03,5,100.0287307
319,58,8,113,2,0.742791801,1,1,0,-1,-0.2,4,106.8029584
319,59,8,113,2,0.490780272,1,1,0,0,0.03,5,112.5433465
319,60,7,121,2,0.77481477,0,1,2,2,0.02,5,120.0674246
319,61,3,104,1,0.828427007,1,1,1,0,-0.02,6,2.030190555
319,62,6,111,2,0.910651004,1,1,0,0,-0.02,6,8.808737537
319,63,7,121,2,0.648656929,0,1,2,2,-0.02,6,15.28266207
319,64,8,113,2,0.823796152,1,1,0,0,0,6,20.87220404
319,65,3,104,1,0.778267662,1,1,1,1,0.3,7,28.2476256
319,66,7,121,2,0.800344452,0,1,2,2,0,7,35.17204675
319,67,8,113,2,0.611481939,1,1,0,0,-0.05,7,41.64563407
319,68,6,111,2,0.755937369,1,1,0,-1,-0.26,7,48.11953058
319,69,3,104,1,0.74129044,1,1,1,0,-0.06,8,55.79506882
319,70,7,121,2,0.924506732,0,1,2,2,0.01,8,61.23419034
319,71,6,111,2,0.803835925,1,1,0,0,-0.02,8,67.40778763
319,72,3,104,1,0.703650336,1,1,1,1,0.26,9,73.88165757
319,73,6,111,2,0.775812926,1,1,0,-1,-0.22,9,80.20568254
319,74,8,113,2,0.592658218,1,1,0,0,-0.02,8,87.57995822
319,75,7,121,2,0.702327812,0,1,2,0,0.49,9,94.50534891
319,76,3,104,1,0.99497983,1,1,1,1,0.29,10,102.1794172
319,77,8,113,2,0.703930917,1,1,0,0,0.05,9,109.7049653
319,78,6,111,2,0.674413544,1,1,0,0,0.01,10,116.4790529
319,79,7,121,2,1.127063169,0,1,2,2,0.02,10,124.0045221
319,80,8,113,2,0.625355324,1,1,0,-1,-0.23,10,128.9932018
273,1,5,122,1,0.567742732,1,1,2,2,0.44,1,2.040261869
273,2,5,122,1,0.416644255,1,1,2,2,0.41,2,9.568671069
273,3,2,103,1,0.520786041,0,1,0,0,-0.22,1,17.39416188
273,4,2,103,2,0.355777646,1,1,0,0,-0.04,2,22.38415088
273,5,2,103,2,0.703240784,1,1,0,-1,-0.2,3,28.1228787
273,6,5,122,1,0.614920967,1,1,2,2,0.45,3,33.7117102
273,7,5,122,1,0.660403788,1,1,2,0,-0.06,4,39.30272113
273,8,4,133,1,0.744570529,0,1,0,0,-0.26,1,44.89161757
273,9,4,133,2,0.386640107,1,1,0,0,-0.01,2,50.78176886
273,10,1,110,1,0.702677224,1,1,1,1,0.21,1,57.55670989
273,11,1,110,1,0.513577498,1,1,1,1,0.29,2,63.14587231
273,12,1,110,1,0.430826992,1,1,1,0,-0.06,3,68.43463276
273,13,4,133,2,0.960356894,1,1,0,0,-0.01,3,73.7237768
273,14,4,133,2,0.464595294,1,1,0,0,-0.04,4,79.74728347
273,15,1,110,1,0.682103897,1,1,1,1,0.22,4,86.52185915
273,16,2,103,2,0.983426622,1,1,0,0,0.02,4,91.51081555
273,17,1,110,1,0.566433308,1,1,1,1,0.23,5,98.5856212
273,18,4,133,2,0.665770696,1,1,0,-1,-0.22,5,104.1742327
273,19,5,122,1,0.599413315,1,1,2,2,0.49,5,111.5494517
273,20,2,103,2,0.872638078,1,1,0,-1,-0.27,5,117.1389636
273,21,2,103,1,0.726109697,0,1,0,0,-0.27,6,2.043839701
273,22,3,111,1,0.858270097,1,1,1,1,0.24,1,9.122329811
273,23,4,133,2,0.738975084,1,1,0,0,0.04,6,16.19687271
273,24,5,122,1,0.650565066,1,1,2,2,0.43,6,22.08598139
273,25,1,110,1,0.702422154,1,1,1,0,-0.07,6,29.61173623
273,26,4,133,2,0.668900935,1,1,0,0,0.03,7,36.38575216
273,27,5,122,1,0.489758827,1,1,2,2,0.42,7,42.56006218
273,28,1,110,1,0.555423714,1,1,1,1,0.23,7,47.84876973
273,29,2,103,2,0.55160071,1,1,0,0,-0.03,7,54.17288133
273,30,1,110,1,0.539347273,1,1,1,1,0.22,8,59.16138714
273,31,5,122,1,0.465651727,1,1,2,2,0.41,8,66.53679682
273,32,4,133,2,0.624547367,1,1,0,-1,-0.27,8,74.36236842
273,33,2,103,2,0.728220859,1,1,0,0,0.05,8,81.9535222
273,34,1,110,1,0.517092963,1,1,1,1,0.29,9,88.12735579
273,35,2,103,2,0.701351655,1,1,0,0,0.04,9,92.96603248
273,36,4,133,2,0.736410761,1,1,0,0,-0.02,9,99.88962374
273,37,5,122,1,0.552765095,1,1,2,0,-0.05,9,107.2649728
273,38,5,122,1,0.504452128,1,1,2,2,0.41,10,112.2551392
273,39,4,133,2,0.59356187,1,1,0,0,-0.02,10,119.479286
273,40,2,103,2,0.57288066,1,1,0,0,0.01,10,125.6526555
273,41,1,110,1,0.536828295,1,1,1,1,0.29,10,2.036709313
273,42,3,111,1,0.86367544,1,1,1,1,0.27,2,8.0642162
273,43,3,111,1,0.491426989,1,1,1,1,0.24,3,15.88944902
273,44,3,111,1,0.46275954,1,1,1,1,0.28,4,22.06274258
273,45,7,108,1,0.690540105,1,1,2,2,0.46,1,27.20190684
273,46,7,108,1,0.372361155,1,1,2,2,0.48,2,33.52502875
273,47,7,108,1,0.42370532,1,1,2,2,0.5,3,39.69974684
273,48,6,137,2,0.836711785,1,1,0,0,0.03,1,45.72312917
273,49,6,137,2,0.386446751,1,1,0,0,0.02,2,51.01110934
273,50,6,137,2,0.585994384,1,1,0,0,-0.01,3,57.1850327
273,51,8,124,1,0.843088219,0,1,0,0,-0.26,1,64.86032644
273,52,8,124,2,0.457567792,1,1,0,0,-0.03,2,71.78398897
273,53,8,124,2,0.564004871,1,1,0,0,-0.01,3,77.67457649
273,54,6,137,2,0.845170057,1,1,0,0,0,4,82.96315127
273,55,3,111,1,0.68759951,1,1,1,1,0.26,5,88.70406955
273,56,7,108,1,0.633013762,1,1,2,0,-0.07,4,94.14294762
273,57,6,137,2,0.715717726,1,1,0,0,0.02,5,100.0332053
273,58,8,124,2,0.708708741,1,1,0,-1,-0.26,4,106.807346
273,59,8,124,2,0.556909494,1,1,0,0,0.05,5,112.5464524
273,60,7,108,1,0.671606875,1,1,2,2,0.46,5,120.0721046
273,61,3,111,1,0.584672842,1,1,1,0,-0.1,6,2.027523504
273,62,6,137,2,0.686730355,1,1,0,0,-0.04,6,8.805435756
273,63,7,108,1,0.529017744,1,1,2,2,0.45,6,15.27909485
273,64,8,124,2,0.748438067,1,1,0,0,-0.02,6,20.86923171
273,65,3,111,1,0.67202631,1,1,1,1,0.21,7,28.24468531
273,66,7,108,1,0.47773264,1,1,2,2,0.43,7,35.16808755
273,67,8,124,2,0.69218675,1,1,0,0,0.02,7,41.64282964
273,68,6,137,2,0.689700663,1,1,0,-1,-0.27,7,48.11677316
273,69,3,111,1,0.624393436,1,1,1,0,-0.07,8,55.7915514
273,70,7,108,1,0.537253876,1,1,2,2,0.43,8,61.23164411
273,71,6,137,2,0.718330196,1,1,0,0,0.03,8,67.40466482
273,72,3,111,1,0.578647247,1,1,1,1,0.27,9,73.87891558
273,73,6,137,2,0.904290634,1,1,0,-1,-0.22,9,80.20239537
273,74,8,124,2,0.707197712,1,1,0,0,0,8,87.57684557
273,75,7,108,1,0.556742452,1,1,2,0,-0.04,9,94.50036627
273,76,3,111,1,0.530500308,1,1,1,1,0.26,10,102.1768713
273,77,8,124,2,0.600916926,1,1,0,0,-0.04,9,109.7017658
273,78,6,137,2,0.578150229,1,1,0,0,-0.03,10,116.4757536
273,79,7,108,1,0.553533804,1,1,2,2,0.43,10,124.000498
273,80,8,124,2,0.684471199,1,1,0,-1,-0.22,10,128.9896481
275,1,5,115,1,0.830383237,1,1,2,2,0.48,1,2.029123356
275,2,5,115,1,1.074984602,1,1,2,2,0.4,2,9.555678435
275,3,2,137,-1,NaN,NaN,1,0,0,-0.5,1,17.38116417
275,4,2,137,1,0.629369219,0,1,0,0,-0.29,2,22.37160022
275,5,2,137,2,0.463031675,1,1,0,-1,-0.24,3,28.11033148
275,6,5,115,1,0.86346854,1,1,2,2,0.42,3,33.70015497
275,7,5,115,1,0.582057384,1,1,2,0,-0.05,4,39.28940694
275,8,4,131,2,1.092334424,1,1,0,0,0.02,1,44.87913251
275,9,4,131,2,0.71675942,1,1,0,0,-0.03,2,50.76938223
275,10,1,135,1,1.036448194,1,1,1,1,0.26,1,57.54343143
275,11,1,135,1,0.602405754,1,1,1,1,0.29,2,63.1328816
275,12,1,135,1,0.565970349,1,1,1,0,-0.03,3,68.42311691
275,13,4,131,1,0.860631593,0,1,0,0,-0.3,3,73.71248622
275,14,4,131,2,0.583512483,1,1,0,0,0.03,4,79.73503301
275,15,1,135,1,1.159749821,1,1,1,1,0.25,4,86.5094363
275,16,2,137,2,1.050169935,1,1,0,0,0.02,4,91.49923488
275,17,1,135,2,1.086494601,0,1,1,1,-0.03,5,98.57277492
275,18,4,131,2,0.854325885,1,1,0,-1,-0.29,5,104.1624084
275,19,5,115,1,0.498927898,1,1,2,2,0.48,5,111.5379007
275,20,2,137,1,1.152455434,0,1,0,-1,-0.03,5,117.1276594
275,21,2,137,2,0.881037718,1,1,0,0,-0.03,6,2.040300572
275,22,3,127,2,0.825157548,0,1,1,1,-0.07,1,9.119201394
275,23,4,131,2,0.770327433,1,1,0,0,0.04,6,16.19367014
275,24,5,115,1,0.395776704,1,1,2,2,0.44,6,22.08484149
275,25,1,135,2,0.746879709,0,1,1,0,0.21,6,29.60923546
275,26,4,131,2,0.695572526,1,1,0,0,0.01,7,36.38391367
275,27,5,115,1,0.535584224,1,1,2,2,0.47,7,42.55681139
275,28,1,135,2,0.893343771,0,1,1,1,-0.06,7,47.84674376
275,29,2,137,2,0.910818505,1,1,0,0,0.02,7,54.17021732
275,30,1,135,1,0.828526373,1,1,1,1,0.25,8,59.15884451
275,31,5,115,1,0.531330836,1,1,2,2,0.47,8,66.53311857
275,32,4,131,2,0.794740078,1,1,0,-1,-0.28,8,74.35843764
275,33,2,137,2,0.810789528,1,1,0,0,-0.03,8,81.95193431
275,34,1,135,1,0.733566664,1,1,1,1,0.23,9,88.12464213
275,35,2,137,2,1.158148045,1,1,0,0,0.01,9,92.96331945
275,36,4,131,2,0.825642651,1,1,0,0,0.05,9,99.88834853
275,37,5,115,1,0.530125209,1,1,2,0,-0.01,9,107.2629579
275,38,5,115,1,0.45647356,1,1,2,2,0.44,10,112.252246
275,39,4,131,2,0.748753232,1,1,0,0,0,10,119.4764238
275,40,2,137,2,0.764392617,1,1,0,0,0.04,10,125.6505128
275,41,1,135,1,0.814474978,1,1,1,1,0.23,10,2.039502876
275,42,3,127,1,0.632427963,1,1,1,1,0.26,2,8.066542089
275,43,3,127,1,0.654880777,1,1,1,1,0.23,3,15.8919396
275,44,3,127,1,0.502693202,1,1,1,1,0.3,4,22.06509787
275,45,7,101,2,1.313778561,0,1,2,2,-0.03,1,27.20386058
275,46,7,101,1,0.495192425,1,1,2,2,0.41,2,33.52868542
275,47,7,101,1,0.584322785,1,1,2,2,0.43,3,39.70066681
275,48,6,119,1,1.168329724,0,1,0,0,-0.21,1,45.72447601
275,49,6,119,2,0.44776134,1,1,0,0,-0.02,2,51.01422085
275,50,6,119,2,0.506703463,1,1,0,0,-0.05,3,57.18803607
275,51,8,122,2,1.120475158,1,1,0,0,0.01,1,64.86358578
275,52,8,122,2,0.444105191,1,1,0,0,0.03,2,71.78846281
275,53,8,122,2,0.42413916,1,1,0,0,0.04,3,77.67775002
275,54,6,119,1,1.230363954,0,1,0,0,-0.28,4,82.96674654
275,55,3,127,1,0.676267108,1,1,1,1,0.21,5,88.70686102
275,56,7,101,2,0.931925757,0,1,2,0,0.47,4,94.14598277
275,57,6,119,2,1.32250274,1,1,0,0,0.04,5,100.0359755
275,58,8,122,1,1.129170674,0,1,0,-1,0.01,4,106.8105147
275,59,8,122,1,1.080010106,0,1,0,0,-0.3,5,112.5504281
275,60,7,101,2,1.117321236,0,1,2,2,0.05,5,120.0747875
275,61,3,127,1,0.59946439,1,1,1,0,-0.09,6,2.042430325
275,62,6,119,2,1.213117581,1,1,0,0,0.01,6,8.819232254
275,63,7,101,2,1.594299748,0,1,2,2,0.05,6,15.29342612
275,64,8,122,2,1.660525565,1,1,0,0,0.01,6,20.88302921
275,65,3,127,1,0.699729252,1,1,1,1,0.23,7,28.257509
275,66,7,101,1,1.234525658,1,1,2,2,0.45,7,35.18256518
275,67,8,122,2,0.804377239,1,1,0,0,-0.03,7,41.6553634
275,68,6,119,2,0.958717654,1,1,0,-1,-0.23,7,48.13074978
275,69,3,127,1,0.629324734,1,1,1,0,-0.03,8,55.80553807
275,70,7,101,1,0.925516575,1,1,2,2,0.46,8,61.2449951
275,71,6,119,2,0.8832249,1,1,0,0,0.04,8,67.41782183
275,72,3,127,1,0.628827044,1,1,1,1,0.22,9,73.89283515
275,73,6,119,2,0.935822971,1,1,0,-1,-0.2,9,80.21668023
275,74,8,122,2,0.763370073,1,1,0,0,-0.01,8,87.59069982
275,75,7,101,1,0.767076814,1,1,2,0,-0.09,9,94.51585777
275,76,3,127,1,0.652989182,1,1,1,1,0.23,10,102.1904323
275,77,8,122,1,0.549970658,0,1,0,0,-0.29,9,109.7160624
275,78,6,119,2,0.806153114,1,1,0,0,0.04,10,116.4900497
275,79,7,101,1,0.786969892,1,1,2,2,0.48,10,124.0162078
275,80,8,122,2,0.706226419,1,1,0,-1,-0.26,10,129.0047953
328,1,5,109,1,0.46342132,1,1,2,2,0.42,1,2.032315494
328,2,5,109,1,0.584316952,1,1,2,2,0.44,2,9.560593647
328,3,2,137,1,0.57105394,0,1,0,0,-0.21,1,17.38684584
328,4,2,137,2,0.698867621,1,1,0,0,0.02,2,22.37596027
328,5,2,137,2,0.733598267,1,1,0,-1,-0.27,3,28.11566275
328,6,5,109,1,0.890031466,1,1,2,2,0.48,3,33.70560231
328,7,5,109,1,0.587023906,1,1,2,0,-0.06,4,39.29377726
328,8,4,112,1,0.96678477,0,1,0,0,-0.23,1,44.88395924
328,9,4,112,2,0.553408351,1,1,0,0,-0.01,2,50.77494689
328,10,1,116,1,0.891717264,1,1,1,1,0.29,1,57.54901879
328,11,1,116,1,0.554532117,1,1,1,1,0.27,2,63.13797836
328,12,1,116,1,0.59661507,1,1,1,0,-0.07,3,68.4273749
328,13,4,112,1,1.663339628,0,1,0,0,-0.22,3,73.71668127
328,14,4,112,2,0.628915885,1,1,0,0,0.03,4,79.74096162
328,15,1,116,1,0.835681558,1,1,1,1,0.22,4,86.51461572
328,16,2,137,1,1.203593854,0,1,0,0,-0.21,4,91.50420594
328,17,1,116,1,0.811885442,1,1,1,1,0.23,5,98.57911167
328,18,4,112,2,1.275457455,1,1,0,-1,-0.2,5,104.168743
328,19,5,109,1,0.745119153,1,1,2,2,0.44,5,111.5419963
328,20,2,137,2,1.363310428,1,1,0,-1,-0.3,5,117.1325644
328,21,2,137,1,1.472140059,0,1,0,0,-0.21,6,2.034330027
328,22,3,132,1,0.891950084,1,1,1,1,0.23,1,9.11587059
328,23,4,112,2,1.204348971,1,1,0,0,-0.02,6,16.18926651
328,24,5,109,1,0.704473478,1,1,2,2,0.44,6,22.07909961
328,25,1,116,1,0.596826586,1,1,1,0,-0.05,6,29.60389303
328,26,4,112,2,0.919062546,1,1,0,0,-0.04,7,36.37786759
328,27,5,109,1,0.59898981,1,1,2,2,0.43,7,42.55192288
328,28,1,116,1,0.648542789,1,1,1,1,0.22,7,47.84050333
328,29,2,137,2,1.574404303,1,1,0,0,0.05,7,54.16375297
328,30,1,116,1,0.696967495,1,1,1,1,0.22,8,59.15362742
328,31,5,109,1,0.537788366,1,1,2,2,0.43,8,66.52887839
328,32,4,112,2,0.788851932,1,1,0,-1,-0.27,8,74.35381029
328,33,2,137,2,0.859721579,1,1,0,0,-0.01,8,81.9459261
328,34,1,116,1,0.597528594,1,1,1,1,0.21,9,88.11901953
328,35,2,137,2,0.720457448,1,1,0,0,0.01,9,92.95803892
328,36,4,112,2,0.802281038,1,1,0,0,0.05,9,99.88304691
328,37,5,109,1,0.603344896,1,1,2,0,-0.1,9,107.2575596
328,38,5,109,1,0.533539203,1,1,2,2,0.48,10,112.2464169
328,39,4,112,2,0.709682303,1,1,0,0,-0.02,10,119.4698032
328,40,2,137,2,0.761930957,1,1,0,0,-0.03,10,125.644555
328,41,1,116,1,0.905504747,1,1,1,1,0.22,10,2.031538199
328,42,3,132,1,1.176531324,1,1,1,1,0.29,2,8.058274125
328,43,3,132,1,0.666855782,1,1,1,1,0.25,3,15.88474963
328,44,3,132,1,0.55756243,1,1,1,1,0.21,4,22.0582947
328,45,7,134,1,0.941729355,1,1,2,2,0.49,1,27.19735498
328,46,7,134,1,0.534241034,1,1,2,2,0.4,2,33.52109211
328,47,7,134,1,0.549033397,1,1,2,2,0.48,3,39.6948456
328,48,6,101,1,1.056945457,0,1,0,0,-0.3,1,45.71733951
328,49,6,101,2,0.59117411,1,1,0,0,0.04,2,51.00764417
328,50,6,101,2,0.569129047,1,1,0,0,0,3,57.17998692
328,51,8,125,1,0.872520191,0,1,0,0,-0.22,1,64.85492989
328,52,8,125,2,0.528642039,1,1,0,0,0.01,2,71.78000735
328,53,8,125,2,0.572337239,1,1,0,0,-0.04,3,77.66931505
328,54,6,101,2,0.883804742,1,1,0,0,-0.01,4,82.9598575
328,55,3,132,1,0.723081185,1,1,1,1,0.25,5,88.69946875
328,56,7,134,1,1.154571421,1,1,2,0,-0.02,4,94.13853259
328,57,6,101,2,0.712692864,1,1,0,0,-0.05,5,100.029236
328,58,8,125,2,0.76460688,1,1,0,-1,-0.21,4,106.8023686
328,59,8,125,2,0.999182514,1,1,0,0,0.04,5,112.5421895
328,60,7,134,1,0.734267369,1,1,2,2,0.44,5,120.0681848
328,61,3,132,1,0.700867679,1,1,1,0,-0.02,6,2.035906149
328,62,6,101,2,0.784055445,1,1,0,0,0.04,6,8.813164526
328,63,7,134,1,0.744785266,1,1,2,2,0.44,6,15.28792905
328,64,8,125,2,0.716258294,1,1,0,0,-0.01,6,20.87560098
328,65,3,132,1,0.644031611,1,1,1,1,0.26,7,28.25291497
328,66,7,134,1,0.694093308,1,1,2,2,0.46,7,35.17555527
328,67,8,125,2,0.668907435,1,1,0,0,-0.03,7,41.65079077
328,68,6,101,2,0.726856011,1,1,0,-1,-0.2,7,48.12510014
328,69,3,132,1,0.577124556,1,1,1,0,-0.07,8,55.79966348
328,70,7,134,1,0.528686649,1,1,2,2,0.48,8,61.23803566
328,71,6,101,2,0.802413789,1,1,0,0,0.03,8,67.41231087
328,72,3,132,1,0.593506242,1,1,1,1,0.22,9,73.8870628
328,73,6,101,2,0.696082577,1,1,0,-1,-0.25,9,80.21046317
328,74,8,125,2,0.633771334,1,1,0,0,0.01,8,87.58506163
328,75,7,134,1,0.582550599,1,1,2,0,-0.04,9,94.50794238
328,76,3,132,1,0.565123052,1,1,1,1,0.23,10,102.1837223
328,77,8,125,2,0.738825097,1,1,0,0,0.01,9,109.7095046
328,78,6,101,2,0.794923621,1,1,0,0,0,10,116.4829459
328,79,7,134,1,0.60780973,1,1,2,2,0.45,10,124.0087244
328,80,8,125,2,0.657784414,1,1,0,-1,-0.26,10,128.99778
329,1,5,116,1,0.806923477,1,1,2,2,0.41,1,2.037619733
329,2,5,116,1,1.179214923,1,1,2,2,0.47,2,9.566058363
329,3,2,101,1,0.95142887,0,1,0,0,-0.26,1,17.39090872
329,4,2,101,2,1.148167463,1,1,0,0,-0.03,2,22.38035644
329,5,2,101,1,0.997510765,0,1,0,-1,-0.04,3,28.12016172
329,6,5,116,1,0.932254999,1,1,2,2,0.4,3,33.71001575
329,7,5,116,1,0.935472685,1,1,2,0,-0.02,4,39.29868387
329,8,4,133,1,0.748775412,0,1,0,0,-0.21,1,44.889006
329,9,4,133,2,0.898655565,1,1,0,0,0,2,50.77877149
329,10,1,111,1,1.029198852,1,1,1,1,0.26,1,57.55260531
329,11,1,111,1,0.809966105,1,1,1,1,0.3,2,63.14292493
329,12,1,111,1,0.517041703,1,1,1,0,-0.08,3,68.43153782
329,13,4,133,1,0.875985994,0,1,0,0,-0.2,3,73.72082086
329,14,4,133,2,0.767429418,1,1,0,0,0.04,4,79.74452665
329,15,1,111,2,1.297146558,0,1,1,1,-0.07,4,86.51845537
329,16,2,101,2,1.112299127,1,1,0,0,0.04,4,91.50658764
329,17,1,111,1,0.916817844,1,1,1,1,0.25,5,98.58214906
329,18,4,133,1,1.441218101,0,1,0,-1,0.04,5,104.1720704
329,19,5,116,2,1.381708767,0,1,2,2,-0.01,5,111.5455222
329,20,2,101,1,1.524064743,0,1,0,-1,-0.03,5,117.1356133
329,21,2,101,1,0.84283649,0,1,0,0,-0.27,6,2.028219777
329,22,3,119,1,0.907847534,1,1,1,1,0.2,1,9.106688118
329,23,4,133,2,1.125105088,1,1,0,0,0,6,16.18157169
329,24,5,116,1,1.351503456,1,1,2,2,0.42,6,22.06977119
329,25,1,111,1,0.694093249,1,1,1,0,-0.03,6,29.59594712
329,26,4,133,2,1.332923755,1,1,0,0,-0.01,7,36.37057114
329,27,5,116,1,1.155194092,1,1,2,2,0.5,7,42.54336992
329,28,1,111,1,1.312538292,1,1,1,1,0.26,7,47.83211877
329,29,2,101,2,0.660119661,1,1,0,0,0.03,7,54.15692618
329,30,1,111,1,1.056459444,1,1,1,1,0.21,8,59.14467852
329,31,5,116,1,0.939132607,1,1,2,2,0.44,8,66.5215053
329,32,4,133,2,0.845353471,1,1,0,-1,-0.21,8,74.34580794
329,33,2,101,2,0.934668925,1,1,0,0,0.03,8,81.9370588
329,34,1,111,1,0.819641386,1,1,1,1,0.28,9,88.11161703
329,35,2,101,2,1.072090174,1,1,0,0,0.03,9,92.95031304
329,36,4,133,2,0.872294871,1,1,0,0,-0.03,9,99.87379904
329,37,5,116,1,0.534975348,1,1,2,0,-0.06,9,107.2493602
329,38,5,116,1,0.651582986,1,1,2,2,0.45,10,112.2384908
329,39,4,133,2,0.7895744,1,1,0,0,0.01,10,119.4634803
329,40,2,101,2,1.044298798,1,1,0,0,0.03,10,125.636883
329,41,1,111,1,1.083818489,1,1,1,1,0.29,10,2.029646592
329,42,3,119,1,0.857485491,1,1,1,1,0.24,2,8.058258225
329,43,3,119,1,0.895248928,1,1,1,1,0.25,3,15.86803671
329,44,3,119,1,0.505877135,1,1,1,1,0.2,4,22.04165465
329,45,7,128,2,1.115093533,0,1,2,2,-0.05,1,27.17903092
329,46,7,128,1,0.832580965,1,1,2,2,0.42,2,33.50424075
329,47,7,128,1,0.802333446,1,1,2,2,0.4,3,39.67605861
329,48,6,123,2,1.208816629,1,1,0,0,0.03,1,45.70137156
329,49,6,123,2,0.954903881,1,1,0,0,0.03,2,50.98967698
329,50,6,123,2,0.55175936,1,1,0,0,0.04,3,57.16254223
329,51,8,117,1,1.190149785,0,1,0,0,-0.26,1,64.8379242
329,52,8,117,2,0.621836981,1,1,0,0,-0.01,2,71.76211541
329,53,8,117,2,0.54018101,1,1,0,0,0.01,3,77.6528655
329,54,6,123,2,1.256182421,1,1,0,0,-0.03,4,82.94107001
329,55,3,119,1,1.277909912,1,1,1,1,0.23,5,88.68154258
329,56,7,128,1,0.843810491,1,1,2,0,-0.08,4,94.12152908
329,57,6,123,2,0.749753475,1,1,0,0,0.02,5,100.0112727
329,58,8,117,1,0.971324004,0,1,0,-1,-0.05,4,106.7844653
329,59,8,117,1,0.692096665,0,1,0,0,-0.24,5,112.5257097
329,60,7,128,1,0.674537805,1,1,2,2,0.44,5,120.0506021
329,61,3,119,1,0.549546788,1,1,1,0,-0.04,6,2.040263689
329,62,6,123,2,1.029011383,1,1,0,0,-0.05,6,8.819452816
329,63,7,128,1,0.886504739,1,1,2,2,0.42,6,15.29210171
329,64,8,117,1,0.674474221,0,1,0,0,-0.26,6,20.88259377
329,65,3,119,1,0.6333992,1,1,1,1,0.26,7,28.25643028
329,66,7,128,1,0.652999644,1,1,2,2,0.45,7,35.18065283
329,67,8,117,1,0.973001534,0,1,0,0,-0.26,7,41.65604554
329,68,6,123,2,0.916629204,1,1,0,-1,-0.25,7,48.12852797
329,69,3,119,1,0.818057954,1,1,1,0,-0.08,8,55.80476166
329,70,7,128,1,0.670287208,1,1,2,2,0.47,8,61.24372305
329,71,6,123,2,0.787013019,1,1,0,0,-0.03,8,67.41793006
329,72,3,119,1,0.894729577,1,1,1,1,0.26,9,73.8910314
329,73,6,123,2,0.727516158,1,1,0,-1,-0.29,9,80.2153507
329,74,8,117,1,0.927630528,0,1,0,0,-0.27,8,87.5903891
329,75,7,128,1,0.89203996,1,1,2,0,-0.08,9,94.51468689
329,76,3,119,1,0.575870371,1,1,1,1,0.2,10,102.1892643
329,77,8,117,1,0.967079549,0,1,0,0,-0.26,9,109.7142553
329,78,6,123,2,0.69116916,1,1,0,0,-0.05,10,116.4880421
329,79,7,128,1,0.576741393,1,1,2,2,0.41,10,124.0142871
329,80,8,117,2,0.793242493,1,1,0,-1,-0.24,10,129.0029818
330,1,5,129,2,1.210940596,0,1,2,2,0,1,2.037930297
330,2,5,129,2,0.88859136,0,1,2,2,0.02,2,9.566351773
330,3,2,105,2,0.894731168,1,1,0,0,0,1,17.39282207
330,4,2,105,1,0.843688824,0,1,0,0,-0.25,2,22.38157454
330,5,2,105,2,0.914423462,1,1,0,-1,-0.25,3,28.12073162
330,6,5,129,2,1.268667777,0,1,2,2,0.03,3,33.71091248
330,7,5,129,1,1.238458105,1,1,2,0,-0.06,4,39.30035967
330,8,4,137,1,1.172520179,0,1,0,0,-0.21,1,44.89018297
330,9,4,137,2,0.378571853,1,1,0,0,0.03,2,50.77979767
330,10,1,118,1,0.781458103,1,1,1,1,0.27,1,57.55389866
330,11,1,118,1,0.561238066,1,1,1,1,0.27,2,63.14388382
330,12,1,118,1,0.611866117,1,1,1,0,-0.09,3,68.43349728
330,13,4,137,-1,NaN,NaN,1,0,0,-0.5,3,73.72204339
330,14,4,137,2,0.676705929,1,1,0,0,0,4,79.74595187
330,15,1,118,1,0.708029245,1,1,1,1,0.25,4,86.51915309
330,16,2,105,2,1.401763334,1,1,0,0,0.02,4,91.50971389
330,17,1,118,1,0.605470932,1,1,1,1,0.23,5,98.58336748
330,18,4,137,2,1.695113007,1,1,0,-1,-0.22,5,104.1716818
330,19,5,129,1,0.78909919,1,1,2,2,0.42,5,111.5475653
330,20,2,105,1,1.120605837,0,1,0,-1,-0.01,5,117.137354
330,21,2,105,1,0.815471141,0,1,0,0,-0.27,6,2.031507509
330,22,3,134,1,0.940502568,1,1,1,1,0.28,1,9.111775833
330,23,4,137,1,1.195176919,0,1,0,0,-0.27,6,16.18569916
330,24,5,129,1,0.721322311,1,1,2,2,0.5,6,22.07699281
330,25,1,118,1,0.667245964,1,1,1,0,-0.1,6,29.60070021
330,26,4,137,2,0.882607497,1,1,0,0,0.04,7,36.37381022
330,27,5,129,1,0.723624225,1,1,2,2,0.48,7,42.54922633
330,28,1,118,1,0.619940588,1,1,1,1,0.27,7,47.83841982
330,29,2,105,1,0.688778978,0,1,0,0,-0.22,7,54.16195172
330,30,1,118,1,0.550227672,1,1,1,1,0.28,8,59.15110171
330,31,5,129,1,0.656903597,1,1,2,2,0.41,8,66.52604813
330,32,4,137,2,1.304391579,1,1,0,-1,-0.25,8,74.3501173
330,33,2,105,2,0.808942438,1,1,0,0,0.03,8,81.94291879
330,34,1,118,1,0.620264876,1,1,1,1,0.3,9,88.11722621
330,35,2,105,2,1.138628498,1,1,0,0,-0.01,9,92.95418878
330,36,4,137,1,0.692130654,0,1,0,0,-0.24,9,99.87962686
330,37,5,129,1,0.661842221,1,1,2,0,-0.08,9,107.2544513
330,38,5,129,1,0.626993729,1,1,2,2,0.43,10,112.2428808
330,39,4,137,1,1.578224716,0,1,0,0,-0.24,10,119.4685752
330,40,2,105,2,0.714805155,1,1,0,0,-0.04,10,125.6413714
330,41,1,118,1,0.59375255,1,1,1,1,0.22,10,2.03840631
330,42,3,134,1,0.756951123,1,1,1,1,0.23,2,8.065487591
330,43,3,134,1,0.668022459,1,1,1,1,0.25,3,15.89143948
330,44,3,134,1,0.678922364,1,1,1,1,0.28,4,22.06555568
330,45,7,121,1,1.025865025,1,1,2,2,0.46,1,27.20327325
330,46,7,121,1,0.541803931,1,1,2,2,0.47,2,33.5278185
330,47,7,121,1,0.540441423,1,1,2,2,0.46,3,39.70112833
330,48,6,130,2,1.006321766,1,1,0,0,0.05,1,45.72483538
330,49,6,130,2,0.536308433,1,1,0,0,0.01,2,51.01398397
330,50,6,130,2,0.566378016,1,1,0,0,0.02,3,57.18764284
330,51,8,119,1,0.561488227,0,1,0,0,-0.25,1,64.86279224
330,52,8,119,1,0.354849628,0,1,0,0,-0.29,2,71.78729888
330,53,8,119,2,0.417271455,1,1,0,0,0.05,3,77.67734351
330,54,6,130,2,0.683654121,1,1,0,0,0.05,4,82.9658265
330,55,3,134,1,0.78066209,1,1,1,1,0.2,5,88.70483745
330,56,7,121,1,0.68184977,1,1,2,0,-0.08,4,94.14546791
330,57,6,130,2,0.783664161,1,1,0,0,0.01,5,100.0355228
330,58,8,119,2,0.802375596,1,1,0,-1,-0.25,4,106.8094208
330,59,8,119,2,0.544690582,1,1,0,0,0.02,5,112.5491122
330,60,7,121,1,0.678669402,1,1,2,2,0.42,5,120.0746481
330,61,3,134,1,0.675930645,1,1,1,0,-0.01,6,2.036522527
330,62,6,130,2,0.649007228,1,1,0,0,0.04,6,8.813795932
330,63,7,121,1,0.644167776,1,1,2,2,0.47,6,15.28792448
330,64,8,119,2,0.901420265,1,1,0,0,-0.01,6,20.87736985
330,65,3,134,1,0.67684458,1,1,1,1,0.25,7,28.2527645
330,66,7,121,1,0.603752459,1,1,2,2,0.49,7,35.17721816
330,67,8,119,2,0.785429694,1,1,0,0,-0.01,7,41.65097341
330,68,6,130,2,0.682448509,1,1,0,-1,-0.26,7,48.1243838
330,69,3,134,1,0.600858992,1,1,1,0,-0.01,8,55.79980598
330,70,7,121,1,0.699076522,1,1,2,2,0.49,8,61.23910905
330,71,6,130,2,0.596387717,1,1,0,0,0.01,8,67.41373928
330,72,3,134,1,0.615272525,1,1,1,1,0.27,9,73.88603883
330,73,6,130,2,0.54934537,1,1,0,-1,-0.23,9,80.21045659
330,74,8,119,2,0.926332839,1,1,0,0,0.02,8,87.58572286
330,75,7,121,1,0.600855095,1,1,2,0,-0.02,9,94.51075741
330,76,3,134,1,0.67236717,1,1,1,1,0.3,10,102.1851192
330,77,8,119,2,0.919029853,1,1,0,0,-0.05,9,109.7093689
330,78,6,130,2,0.635651984,1,1,0,0,0,10,116.485002
330,79,7,121,1,0.639679306,1,1,2,2,0.49,10,124.0102107
330,80,8,119,1,0.623907534,0,1,0,-1,0.01,10,128.9984941
337,1,5,129,1,0.741554705,1,1,2,2,0.41,1,2.035839112
337,2,5,129,1,0.526427387,1,1,2,2,0.46,2,9.566494194
337,3,2,121,2,1.09852477,1,1,0,0,-0.02,1,17.39317754
337,4,2,121,2,0.620286245,1,1,0,0,0.03,2,22.38015752
337,5,2,121,2,0.606890079,1,1,0,-1,-0.26,3,28.11994409
337,6,5,129,1,0.625354665,1,1,2,2,0.46,3,33.70812834
337,7,5,129,1,0.522721201,1,1,2,0,-0.06,4,39.29876917
337,8,4,113,1,1.294352087,0,1,0,0,-0.25,1,44.88869404
337,9,4,113,2,0.776553928,1,1,0,0,0.03,2,50.77813919
337,10,1,122,1,1.608883588,1,1,1,1,0.23,1,57.53479839
337,11,1,122,1,0.631472362,1,1,1,1,0.22,2,63.12507568
337,12,1,122,1,0.644057967,1,1,1,0,-0.09,3,68.41502948
337,13,4,113,2,0.867022016,1,1,0,0,0.02,3,73.70413894
337,14,4,113,2,0.616287735,1,1,0,0,0.03,4,79.727215
337,15,1,122,1,0.77420456,1,1,1,1,0.27,4,86.50203935
337,16,2,121,2,0.756010868,1,1,0,0,0.04,4,91.49081661
337,17,1,122,1,0.878885622,1,1,1,1,0.24,5,98.56525882
337,18,4,113,2,0.726084531,1,1,0,-1,-0.2,5,104.1547404
337,19,5,129,1,0.61856519,1,1,2,2,0.41,5,111.5298763
337,20,2,121,2,0.643917082,1,1,0,-1,-0.28,5,117.1189694
337,21,2,121,2,0.691025897,1,1,0,0,0.04,6,2.032059045
337,22,3,131,1,0.811713786,1,1,1,1,0.23,1,9.111817189
337,23,4,113,2,0.98518347,1,1,0,0,0.03,6,16.18603324
337,24,5,129,1,0.646429483,1,1,2,2,0.44,6,22.07521195
337,25,1,122,1,0.779857369,1,1,1,0,-0.01,6,29.60027302
337,26,4,113,2,0.707919326,1,1,0,0,0,7,36.37453549
337,27,5,129,1,0.848783707,1,1,2,2,0.48,7,42.54899475
337,28,1,122,1,0.760135975,1,1,1,1,0.23,7,47.83752535
337,29,2,121,2,0.687881625,1,1,0,0,0,7,54.16191123
337,30,1,122,1,0.692109942,1,1,1,1,0.24,8,59.15058918
337,31,5,129,1,0.597708779,1,1,2,2,0.46,8,66.52432058
337,32,4,113,2,0.713818093,1,1,0,-1,-0.26,8,74.35050424
337,33,2,121,2,0.693679739,1,1,0,0,0.04,8,81.94196413
337,34,1,122,1,0.60052303,1,1,1,1,0.29,9,88.11645486
337,35,2,121,2,0.653289885,1,1,0,0,-0.01,9,92.95416985
337,36,4,113,2,0.714468745,1,1,0,0,0.01,9,99.87961789
337,37,5,129,1,0.694884846,1,1,2,0,-0.08,9,107.2532687
337,38,5,129,1,0.910763075,1,1,2,2,0.46,10,112.243366
337,39,4,113,2,0.717205979,1,1,0,0,-0.01,10,119.4678006
337,40,2,121,2,0.650253708,1,1,0,0,-0.05,10,125.6416264
337,41,1,122,1,0.658610411,1,1,1,1,0.24,10,2.040167722
337,42,3,131,1,0.596573325,1,1,1,1,0.28,2,8.067332487
337,43,3,131,1,0.566646849,1,1,1,1,0.29,3,15.89365414
337,44,3,131,1,0.66704398,1,1,1,1,0.21,4,22.06629417
337,45,7,111,1,1.096787657,1,1,2,2,0.46,1,27.20538153
337,46,7,111,1,0.556396247,1,1,2,2,0.43,2,33.52933448
337,47,7,111,1,0.537174315,1,1,2,2,0.41,3,39.70280226
337,48,6,110,2,0.876990692,1,1,0,0,0.03,1,45.72563246
337,49,6,110,2,0.658108425,1,1,0,0,0.01,2,51.01409167
337,50,6,110,2,0.733404204,1,1,0,0,0,3,57.1887427
337,51,8,120,1,0.842344696,0,1,0,0,-0.29,1,64.86409155
337,52,8,120,2,0.465062717,1,1,0,0,-0.02,2,71.78811488
337,53,8,120,2,0.560118815,1,1,0,0,0.01,3,77.67804911
337,54,6,110,2,0.919385899,1,1,0,0,-0.03,4,82.96655117
337,55,3,131,1,0.76676489,1,1,1,1,0.27,5,88.70633864
337,56,7,111,1,0.653266357,1,1,2,0,-0.05,4,94.14661138
337,57,6,110,2,0.713569306,1,1,0,0,0.02,5,100.0376763
337,58,8,120,2,0.717336301,1,1,0,-1,-0.2,4,106.8114869
337,59,8,120,2,0.671179062,1,1,0,0,-0.02,5,112.5500779
337,60,7,111,1,0.890840129,1,1,2,2,0.43,5,120.0753355
337,61,3,131,1,0.537836648,1,1,1,0,-0.01,6,2.039825145
337,62,6,110,2,0.668816327,1,1,0,0,0.01,6,8.817467133
337,63,7,111,1,0.483372757,1,1,2,2,0.43,6,15.29157022
337,64,8,120,2,0.63567968,1,1,0,0,0.04,6,20.88133876
337,65,3,131,1,0.695280462,1,1,1,1,0.25,7,28.25535628
337,66,7,111,1,1.634279437,1,1,2,2,0.41,7,35.1802827
337,67,8,120,2,0.605554137,1,1,0,0,0.04,7,41.65458975
337,68,6,110,2,0.622377079,1,1,0,-1,-0.26,7,48.1282396
337,69,3,131,1,0.566122949,1,1,1,0,-0.07,8,55.8029332
337,70,7,111,1,0.873845388,1,1,2,2,0.42,8,61.24289789
337,71,6,110,2,0.798991718,1,1,0,0,0.03,8,67.41717057
337,72,3,131,1,0.647602302,1,1,1,1,0.25,9,73.89017788
337,73,6,110,1,1.188179667,0,1,0,-1,0.04,9,80.21375012
337,74,8,120,2,0.662218476,1,1,0,0,0.02,8,87.58931778
337,75,7,111,1,0.57022601,1,1,2,0,-0.05,9,94.51325405
337,76,3,131,1,0.465204989,1,1,1,1,0.23,10,102.1892866
337,77,8,120,2,0.772318496,1,1,0,0,-0.05,9,109.7129871
337,78,6,110,2,0.89570104,1,1,0,0,0.01,10,116.4874518
337,79,7,111,1,0.63531576,1,1,2,2,0.43,10,124.0131539
337,80,8,120,2,0.611396612,1,1,0,-1,-0.3,10,129.0022108
338,1,5,119,2,0.84529991,0,1,2,2,0,1,2.036447338
338,2,5,119,1,1.544636694,1,1,2,2,0.4,2,9.566329402
338,3,2,127,1,0.949772309,0,1,0,0,-0.27,1,17.39200172
338,4,2,127,2,0.527773754,1,1,0,0,-0.03,2,22.37999141
338,5,2,127,1,0.326405126,0,1,0,-1,0,3,28.1199327
338,6,5,119,2,1.122538004,0,1,2,2,-0.01,3,33.71003917
338,7,5,119,1,0.490289727,1,1,2,0,-0.06,4,39.29947255
338,8,4,111,1,1.207371766,0,1,0,0,-0.23,1,44.88917363
338,9,4,111,2,0.367087005,1,1,0,0,0.02,2,50.77912538
338,10,1,124,2,0.502672157,0,1,1,1,-0.05,1,57.55349882
338,11,1,124,1,0.593613765,1,1,1,1,0.2,2,63.14241041
338,12,1,124,1,0.583281562,1,1,1,0,-0.07,3,68.43208003
338,13,4,111,1,1.696637758,0,1,0,0,-0.24,3,73.72133943
338,14,4,111,-1,NaN,NaN,1,0,0,-0.5,4,79.74339098
338,15,1,124,1,0.538568781,1,1,1,1,0.27,4,86.5198017
338,16,2,127,1,0.910526119,0,1,0,0,-0.27,4,91.50826505
338,17,1,124,1,0.580980158,1,1,1,1,0.25,5,98.58241093
338,18,4,111,2,0.506676446,1,1,0,-1,-0.25,5,104.1707959
338,19,5,119,1,0.93923913,1,1,2,2,0.42,5,111.5471554
338,20,2,127,2,1.136581971,1,1,0,-1,-0.24,5,117.1363982
338,21,2,127,1,1.624814341,0,1,0,0,-0.21,6,2.034107643
338,22,3,133,1,1.828087915,1,1,1,1,0.26,1,9.112732201
338,23,4,111,2,1.513092452,1,1,0,0,0,6,16.18606954
338,24,5,119,2,1.340185073,0,1,2,2,0,6,22.07737714
338,25,1,124,2,1.236840958,0,1,1,0,0.29,6,29.60271745
338,26,4,111,-1,NaN,NaN,1,0,0,-0.5,7,36.37530136
338,27,5,119,2,1.03607296,0,1,2,2,0.04,7,42.55028159
338,28,1,124,1,1.108668946,1,1,1,1,0.24,7,47.83947914
338,29,2,127,2,1.587730957,1,1,0,0,-0.03,7,54.16314906
338,30,1,124,1,0.926894402,1,1,1,1,0.3,8,59.15075126
338,31,5,119,2,1.606897043,0,1,2,2,0.05,8,66.52647892
338,32,4,111,2,1.545588639,1,1,0,-1,-0.22,8,74.3516962
338,33,2,127,-1,NaN,NaN,1,0,0,-0.5,8,81.94393972
338,34,1,124,1,1.28108374,1,1,1,1,0.25,9,88.11728205
338,35,2,127,1,1.102643562,0,1,0,0,-0.28,9,92.95661782
338,36,4,111,2,1.61789831,1,1,0,0,0.01,9,99.88127677
338,37,5,119,1,1.293929843,1,1,2,0,-0.05,9,107.2558914
338,38,5,119,1,1.635251482,1,1,2,2,0.48,10,112.2445214
338,39,4,111,2,0.971631538,1,1,0,0,-0.03,10,119.4691729
338,40,2,127,1,0.715498547,0,1,0,0,-0.28,10,125.6432117
338,41,1,124,1,1.406850978,1,1,1,1,0.24,10,2.035021707
338,42,3,133,1,1.177852378,1,1,1,1,0.28,2,8.062311603
338,43,3,133,1,0.73429174,1,1,1,1,0.27,3,15.88754719
338,44,3,133,1,0.58126132,1,1,1,1,0.29,4,22.06075311
338,45,7,129,2,1.649012516,0,1,2,2,0.01,1,27.20035417
338,46,7,129,1,0.524012987,1,1,2,2,0.41,2,33.52319984
338,47,7,129,1,0.504391235,1,1,2,2,0.48,3,39.6982474
338,48,6,126,2,1.455331628,1,1,0,0,0.01,1,45.71985077
338,49,6,126,2,1.252997666,1,1,0,0,0.03,2,51.0098635
338,50,6,126,2,1.31052634,1,1,0,0,-0.03,3,57.18377564
338,51,8,125,1,0.899218515,0,1,0,0,-0.29,1,64.8589082
338,52,8,125,2,0.258657564,1,1,0,0,-0.01,2,71.78327155
338,53,8,125,1,0.408927489,0,1,0,0,-0.27,3,77.67367909
338,54,6,126,1,1.086738885,0,1,0,0,-0.24,4,82.96323381
338,55,3,133,1,1.007998231,1,1,1,1,0.23,5,88.70214166
338,56,7,129,2,1.759164107,0,1,2,0,0.42,4,94.14162801
338,57,6,126,2,1.001613752,1,1,0,0,-0.01,5,100.0310822
338,58,8,125,2,1.031101958,1,1,0,-1,-0.28,4,106.8057161
338,59,8,125,1,0.444823263,0,1,0,0,-0.2,5,112.5456421
338,60,7,129,2,1.261352443,0,1,2,2,0.03,5,120.0699145
338,61,3,133,1,0.738824369,1,1,1,0,-0.06,6,2.042228188
338,62,6,126,1,1.881972723,0,1,0,0,-0.24,6,8.821403386
338,63,7,129,1,1.242896197,1,1,2,2,0.49,6,15.29457999
338,64,8,125,1,0.933337297,0,1,0,0,-0.29,6,20.88460584
338,65,3,133,1,0.724318752,1,1,1,1,0.25,7,28.25976684
338,66,7,129,2,1.573435564,0,1,2,2,0.01,7,35.18408851
338,67,8,125,1,0.657872488,0,1,0,0,-0.29,7,41.65793425
338,68,6,126,1,0.847384941,0,1,0,-1,0.02,7,48.13173247
338,69,3,133,1,1.09168597,1,1,1,0,-0.01,8,55.80761633
338,70,7,129,1,0.926707835,1,1,2,2,0.44,8,61.24642977
338,71,6,126,2,0.889498326,1,1,0,0,-0.02,8,67.42049283
338,72,3,133,1,0.731605143,1,1,1,1,0.21,9,73.89309901
338,73,6,126,1,1.26937946,0,1,0,-1,-0.02,9,80.21769956
338,74,8,125,1,0.914811095,0,1,0,0,-0.27,8,87.59254893
338,75,7,129,2,1.242056433,0,1,2,0,0.48,9,94.51755373
338,76,3,133,1,1.033910146,1,1,1,1,0.23,10,102.1922719
338,77,8,125,1,0.924416994,0,1,0,0,-0.26,9,109.7171385
338,78,6,126,2,1.943214746,1,1,0,0,-0.02,10,116.4914411
338,79,7,129,1,0.774219708,1,1,2,2,0.49,10,124.0157572
338,80,8,125,1,0.782657721,0,1,0,-1,-0.02,10,129.0049694
349,1,5,131,1,0.79329561,1,1,2,2,0.4,1,2.039472359
349,2,5,131,1,0.973105469,1,1,2,2,0.42,2,9.568881121
349,3,2,124,1,1.790721566,0,1,0,0,-0.26,1,17.39491675
349,4,2,124,2,0.490735366,1,1,0,0,-0.01,2,22.38281132
349,5,2,124,-1,NaN,NaN,1,0,-1,-0.5,3,28.12268396
349,6,5,131,1,0.673444865,1,1,2,2,0.49,3,33.71274127
349,7,5,131,1,0.548507751,1,1,2,0,-0.06,4,39.30194878
349,8,4,114,1,1.179358436,0,1,0,0,-0.2,1,44.8912361
349,9,4,114,2,0.591606225,1,1,0,0,-0.03,2,50.7808546
349,10,1,126,2,0.957169899,0,1,1,1,-0.07,1,57.55515507
349,11,1,126,1,0.358895824,1,1,1,1,0.24,2,63.14537775
349,12,1,126,1,0.646759441,1,1,1,0,-0.08,3,68.4338691
349,13,4,114,2,1.917017907,1,1,0,0,0.02,3,73.72318694
349,14,4,114,1,0.395559181,0,1,0,0,-0.22,4,79.74706298
349,15,1,126,1,1.322932699,1,1,1,1,0.21,4,86.52160166
349,16,2,124,2,1.231234388,1,1,0,0,0.04,4,91.51044884
349,17,1,126,1,1.471506499,1,1,1,1,0.21,5,98.58515034
349,18,4,114,2,1.586018553,1,1,0,-1,-0.3,5,104.1744627
349,19,5,131,1,0.867934865,1,1,2,2,0.5,5,111.549026
349,20,2,124,2,1.580448347,1,1,0,-1,-0.28,5,117.1377009
349,21,2,124,1,1.458651371,0,1,0,0,-0.27,6,2.031745789
349,22,3,107,1,1.072756513,1,1,1,1,0.27,1,9.1097833
349,23,4,114,-1,NaN,NaN,1,0,0,-0.5,6,16.18399759
349,24,5,131,1,0.703985429,1,1,2,2,0.48,6,22.07516739
349,25,1,126,1,1.386553696,1,1,1,0,-0.08,6,29.60005328
349,26,4,114,1,1.298886425,0,1,0,0,-0.29,7,36.37358045
349,27,5,131,1,0.737258925,1,1,2,2,0.46,7,42.5472109
349,28,1,126,2,1.340651551,0,1,1,1,-0.09,7,47.83635475
349,29,2,124,1,1.602062927,0,1,0,0,-0.25,7,54.16075339
349,30,1,126,2,1.164903246,0,1,1,1,-0.01,8,59.14987726
349,31,5,131,1,0.772045049,1,1,2,2,0.46,8,66.52436695
349,32,4,114,2,1.188352204,1,1,0,-1,-0.22,8,74.35037698
349,33,2,124,2,1.316254752,1,1,0,0,0.01,8,81.94184172
349,34,1,126,1,1.586885434,1,1,1,1,0.26,9,88.11479874
349,35,2,124,2,1.012657424,1,1,0,0,0.05,9,92.95457325
349,36,4,114,1,1.798389507,0,1,0,0,-0.27,9,99.87798577
349,37,5,131,1,0.701226222,1,1,2,0,-0.04,9,107.2531337
349,38,5,131,1,0.683606378,1,1,2,2,0.49,10,112.241861
349,39,4,114,2,1.255280337,1,1,0,0,-0.04,10,119.4673734
349,40,2,124,2,0.922608619,1,1,0,0,-0.03,10,125.6403151
349,41,1,126,1,1.881314358,1,1,1,1,0.27,10,2.035439169
349,42,3,107,-1,NaN,NaN,1,1,1,-0.5,2,8.062452733
349,43,3,107,1,0.466708867,1,1,1,1,0.23,3,15.89309018
349,44,3,107,1,0.486535352,1,1,1,1,0.22,4,22.0623545
349,45,7,135,1,1.176587335,1,1,2,2,0.42,1,27.2014739
349,46,7,135,1,0.419737173,1,1,2,2,0.47,2,33.52481692
349,47,7,135,1,0.578633173,1,1,2,2,0.45,3,39.69830544
349,48,6,137,1,1.009370359,0,1,0,0,-0.23,1,45.721818
349,49,6,137,2,0.375925872,1,1,0,0,-0.02,2,51.01113444
349,50,6,137,2,0.576174037,1,1,0,0,-0.03,3,57.1847306
349,51,8,111,1,1.734054316,0,1,0,0,-0.24,1,64.8586248
349,52,8,111,2,0.393092109,1,1,0,0,-0.02,2,71.7845914
349,53,8,111,2,1.317054231,1,1,0,0,-0.01,3,77.67495592
349,54,6,137,2,1.375201499,1,1,0,0,-0.04,4,82.96361889
349,55,3,107,1,1.496126596,1,1,1,1,0.28,5,88.70311643
349,56,7,135,1,0.670285284,1,1,2,0,-0.01,4,94.14331458
349,57,6,137,2,0.931533176,1,1,0,0,-0.03,5,100.0314668
349,58,8,111,2,0.594126499,1,1,0,-1,-0.26,4,106.8054817
349,59,8,111,2,0.71660064,1,1,0,0,-0.04,5,112.5464341
349,60,7,135,1,1.236090991,1,1,2,2,0.43,5,120.0712983
349,61,3,107,1,0.687983837,1,1,1,0,-0.03,6,2.036990286
349,62,6,137,2,0.786751405,1,1,0,0,0,6,8.815692587
349,63,7,135,1,0.664001461,1,1,2,2,0.43,6,15.2889268
349,64,8,111,2,0.940179444,1,1,0,0,-0.04,6,20.8786854
349,65,3,107,1,0.60720421,1,1,1,1,0.21,7,28.25345954
349,66,7,135,1,0.565887794,1,1,2,2,0.42,7,35.17850273
349,67,8,111,2,0.820576344,1,1,0,0,0,7,41.65214582
349,68,6,137,2,0.751661311,1,1,0,-1,-0.23,7,48.12544351
349,69,3,107,1,0.688007011,1,1,1,0,-0.05,8,55.80113058
349,70,7,135,1,0.551229629,1,1,2,2,0.43,8,61.24085371
349,71,6,137,2,0.734559974,1,1,0,0,0.02,8,67.41446331
349,72,3,107,1,1.01107983,1,1,1,1,0.3,9,73.88859543
349,73,6,137,2,0.672830662,1,1,0,-1,-0.23,9,80.21154491
349,74,8,111,2,0.80263806,1,1,0,0,-0.03,8,87.58613665
349,75,7,135,1,1.136005381,1,1,2,0,-0.06,9,94.51113821
349,76,3,107,1,0.536974124,1,1,1,1,0.28,10,102.1866734
349,77,8,111,2,1.3218088,1,1,0,0,0.01,9,109.711645
349,78,6,137,2,0.68436635,1,1,0,0,-0.05,10,116.4857213
349,79,7,135,1,0.559845731,1,1,2,2,0.45,10,124.0104958
349,80,8,111,2,0.749758027,1,1,0,-1,-0.25,10,128.9997611
336,1,5,118,1,0.994502596,1,1,2,2,0.43,1,2.029574757
336,2,5,118,1,0.921569956,1,1,2,2,0.5,2,9.575009171
336,3,2,127,2,0.505109865,1,1,0,0,-0.04,1,17.40096462
336,4,2,127,1,0.406078835,0,1,0,0,-0.27,2,22.38928126
336,5,2,127,2,0.907209338,1,1,0,-1,-0.26,3,28.12881869
336,6,5,118,1,0.912160943,1,1,2,2,0.41,3,33.72003391
336,7,5,118,1,0.905239953,1,1,2,0,-0.01,4,39.3081505
336,8,4,138,1,1.030959796,0,1,0,0,-0.21,1,44.89813225
336,9,4,138,2,0.649927608,1,1,0,0,0.04,2,50.78768849
336,10,1,114,2,1.270367639,0,1,1,1,-0.09,1,57.56215745
336,11,1,114,1,0.470632204,1,1,1,1,0.21,2,63.15104809
336,12,1,114,1,0.663174748,1,1,1,0,-0.05,3,68.44073949
336,13,4,138,2,1.369030923,1,1,0,0,0,3,73.7304118
336,14,4,138,2,0.638082221,1,1,0,0,-0.02,4,79.75271791
336,15,1,114,2,1.186404034,0,1,1,1,-0.05,4,86.52715978
336,16,2,127,2,1.370126574,1,1,0,0,-0.02,4,91.51683457
336,17,1,114,2,0.899793338,0,1,1,1,-0.03,5,98.59167368
336,18,4,138,2,1.012364253,1,1,0,-1,-0.23,5,104.1807866
336,19,5,118,1,0.556150338,1,1,2,2,0.42,5,111.5555595
336,20,2,127,2,1.055351892,1,1,0,-1,-0.23,5,117.1461916
336,21,2,127,1,0.978305921,0,1,0,0,-0.27,6,2.040367958
336,22,3,129,2,1.02274132,0,1,1,1,-0.09,1,9.119301243
336,23,4,138,1,0.957003921,0,1,0,0,-0.29,6,16.19338214
336,24,5,118,1,0.705621846,1,1,2,2,0.41,6,22.0830769
336,25,1,114,1,1.300675054,1,1,1,0,-0.1,6,29.60840393
336,26,4,138,2,1.537953608,1,1,0,0,-0.01,7,36.38246411
336,27,5,118,1,0.707154549,1,1,2,2,0.43,7,42.55583458
336,28,1,114,2,1.234422299,0,1,1,1,-0.02,7,47.8453014
336,29,2,127,2,0.988195684,1,1,0,0,-0.01,7,54.16939486
336,30,1,114,2,0.855411874,0,1,1,1,-0.04,8,59.15820117
336,31,5,118,1,0.636494979,1,1,2,2,0.44,8,66.53346545
336,32,4,138,2,1.025570355,1,1,0,-1,-0.25,8,74.358315
336,33,2,127,2,0.848804102,1,1,0,0,-0.02,8,81.95010295
336,34,1,114,2,1.206053294,0,1,1,1,-0.03,9,88.12395807
336,35,2,127,2,1.053282122,1,1,0,0,0.04,9,92.96267989
336,36,4,138,1,1.540244665,0,1,0,0,-0.22,9,99.88598699
336,37,5,118,1,0.476572851,1,1,2,0,-0.08,9,107.2627895
336,38,5,118,1,0.619219549,1,1,2,2,0.5,10,112.2507057
336,39,4,138,2,1.002440523,1,1,0,0,0.02,10,119.4747985
336,40,2,127,2,0.831570314,1,1,0,0,-0.05,10,125.6486292
336,41,1,114,2,0.839036699,0,1,1,1,-0.08,10,2.043026615
336,42,3,129,1,1.122590942,1,1,1,1,0.29,2,8.070159547
336,43,3,129,1,0.668878125,1,1,1,1,0.29,3,15.89549701
336,44,3,129,1,0.526639517,1,1,1,1,0.2,4,22.06983178
336,45,7,123,2,1.063918731,0,1,2,2,-0.03,1,27.2090641
336,46,7,123,2,0.793978361,0,1,2,2,-0.04,2,33.53213067
336,47,7,123,1,0.571444887,1,1,2,2,0.47,3,39.70565395
336,48,6,115,2,0.952116677,1,1,0,0,-0.05,1,45.7298554
336,49,6,115,2,0.886611754,1,1,0,0,0,2,51.01786296
336,50,6,115,2,0.864898206,1,1,0,0,0,3,57.19200981
336,51,8,128,2,0.83593342,1,1,0,0,0.03,1,64.8673365
336,52,8,128,2,0.555397541,1,1,0,0,-0.02,2,71.79146435
